"","ID","congruency","RT","accuracy","cond","trial","rt"
"6",1,"incongruent",701,1,2,6,0.701
"7",1,"incongruent",838,1,2,7,0.838
"8",1,"incongruent",659,1,2,8,0.659
"9",1,"congruent",739,1,1,9,0.739
"12",1,"congruent",670,1,1,12,0.67
"13",1,"congruent",626,1,1,13,0.626
"15",1,"incongruent",591,1,2,15,0.591
"16",1,"congruent",589,1,1,16,0.589
"17",1,"incongruent",835,1,2,17,0.835
"18",1,"congruent",663,1,1,18,0.663
"19",1,"incongruent",911,1,2,19,0.911
"20",1,"congruent",557,1,1,20,0.557
"21",1,"congruent",843,1,1,21,0.843
"23",1,"congruent",558,1,1,23,0.558
"24",1,"incongruent",819,1,2,24,0.819
"25",1,"congruent",575,1,1,25,0.575
"26",1,"congruent",461,1,1,26,0.461
"27",1,"congruent",504,1,1,27,0.504
"28",1,"congruent",508,1,1,28,0.508
"29",1,"incongruent",664,1,2,29,0.664
"32",1,"incongruent",547,1,2,32,0.547
"33",1,"congruent",609,1,1,33,0.609
"35",1,"congruent",480,1,1,35,0.48
"36",1,"congruent",555,1,1,36,0.555
"38",1,"incongruent",892,1,2,38,0.892
"39",1,"congruent",590,1,1,39,0.59
"40",1,"incongruent",492,1,2,40,0.492
"41",1,"incongruent",479,1,2,41,0.479
"42",1,"incongruent",579,1,2,42,0.579
"43",1,"congruent",472,1,1,43,0.472
"44",1,"incongruent",1083,1,2,44,1.083
"45",1,"incongruent",734,1,2,45,0.734
"47",1,"congruent",686,1,1,47,0.686
"48",1,"incongruent",703,1,2,48,0.703
"51",1,"congruent",634,1,1,51,0.634
"52",1,"incongruent",585,1,2,52,0.585
"54",1,"incongruent",747,1,2,54,0.747
"57",1,"incongruent",817,1,2,57,0.817
"58",1,"congruent",709,1,1,58,0.709
"59",1,"incongruent",718,1,2,59,0.718
"60",1,"congruent",983,1,1,60,0.983
"62",1,"incongruent",799,1,2,62,0.799
"63",1,"incongruent",583,1,2,63,0.583
"64",1,"congruent",613,1,1,64,0.613
"65",1,"incongruent",499,1,2,65,0.499
"66",1,"incongruent",815,1,2,66,0.815
"67",1,"incongruent",563,1,2,67,0.563
"68",1,"congruent",640,1,1,68,0.64
"69",1,"congruent",551,1,1,69,0.551
"73",1,"incongruent",847,1,2,73,0.847
"76",1,"congruent",591,1,1,76,0.591
"77",1,"congruent",565,1,1,77,0.565
"78",1,"congruent",603,1,1,78,0.603
"79",1,"incongruent",513,1,2,79,0.513
"81",1,"incongruent",570,1,2,81,0.57
"83",1,"congruent",840,1,1,83,0.84
"85",1,"congruent",596,1,1,85,0.596
"86",1,"congruent",606,1,1,86,0.606
"87",1,"congruent",565,1,1,87,0.565
"89",1,"incongruent",823,1,2,89,0.823
"90",1,"incongruent",571,1,2,90,0.571
"91",1,"congruent",585,1,1,91,0.585
"93",1,"congruent",597,1,1,93,0.597
"97",1,"congruent",735,1,1,97,0.735
"99",1,"incongruent",665,1,2,99,0.665
"100",1,"incongruent",940,1,2,100,0.94
"101",1,"congruent",568,1,1,101,0.568
"102",1,"congruent",533,1,1,102,0.533
"103",1,"incongruent",650,1,2,103,0.65
"104",1,"incongruent",746,1,2,104,0.746
"105",1,"incongruent",1828,1,2,105,1.828
"107",1,"congruent",675,1,1,107,0.675
"110",1,"congruent",607,1,1,110,0.607
"112",1,"congruent",459,1,1,112,0.459
"115",1,"congruent",694,1,1,115,0.694
"120",1,"incongruent",1346,1,2,120,1.346
"123",1,"congruent",1188,1,1,123,1.188
"124",1,"incongruent",674,1,2,124,0.674
"127",1,"congruent",668,1,1,127,0.668
"128",1,"congruent",548,1,1,128,0.548
"129",1,"congruent",577,1,1,129,0.577
"130",1,"congruent",526,1,1,130,0.526
"131",1,"incongruent",739,1,2,131,0.739
"134",1,"incongruent",574,1,2,134,0.574
"135",1,"congruent",580,1,1,135,0.58
"137",1,"incongruent",760,1,2,137,0.76
"140",1,"incongruent",709,1,2,140,0.709
"141",1,"incongruent",614,1,2,141,0.614
"142",1,"congruent",541,1,1,142,0.541
"144",1,"congruent",531,1,1,144,0.531
"148",2,"incongruent",708,1,2,4,0.708
"150",2,"incongruent",474,1,2,6,0.474
"151",2,"incongruent",645,1,2,7,0.645
"152",2,"incongruent",549,1,2,8,0.549
"153",2,"congruent",594,1,1,9,0.594
"154",2,"incongruent",633,1,2,10,0.633
"156",2,"congruent",662,1,1,12,0.662
"157",2,"congruent",630,1,1,13,0.63
"159",2,"incongruent",693,1,2,15,0.693
"160",2,"congruent",518,1,1,16,0.518
"161",2,"incongruent",643,1,2,17,0.643
"162",2,"congruent",530,1,1,18,0.53
"163",2,"incongruent",823,1,2,19,0.823
"164",2,"congruent",579,1,1,20,0.579
"165",2,"congruent",481,1,1,21,0.481
"167",2,"congruent",537,1,1,23,0.537
"168",2,"incongruent",606,1,2,24,0.606
"169",2,"congruent",581,1,1,25,0.581
"170",2,"congruent",579,1,1,26,0.579
"171",2,"congruent",681,1,1,27,0.681
"172",2,"congruent",609,1,1,28,0.609
"173",2,"incongruent",615,1,2,29,0.615
"176",2,"incongruent",600,1,2,32,0.6
"177",2,"congruent",519,1,1,33,0.519
"179",2,"congruent",633,1,1,35,0.633
"180",2,"congruent",521,1,1,36,0.521
"182",2,"incongruent",784,1,2,38,0.784
"183",2,"congruent",476,1,1,39,0.476
"184",2,"incongruent",535,1,2,40,0.535
"186",2,"incongruent",1169,1,2,42,1.169
"187",2,"congruent",461,1,1,43,0.461
"188",2,"incongruent",760,1,2,44,0.76
"189",2,"incongruent",634,1,2,45,0.634
"191",2,"congruent",546,1,1,47,0.546
"192",2,"incongruent",527,1,2,48,0.527
"195",2,"congruent",532,1,1,51,0.532
"196",2,"incongruent",521,1,2,52,0.521
"200",2,"incongruent",592,1,2,56,0.592
"202",2,"congruent",632,1,1,58,0.632
"203",2,"incongruent",639,1,2,59,0.639
"204",2,"congruent",1054,1,1,60,1.054
"206",2,"incongruent",605,1,2,62,0.605
"207",2,"incongruent",1156,1,2,63,1.156
"208",2,"congruent",681,1,1,64,0.681
"209",2,"incongruent",569,1,2,65,0.569
"211",2,"incongruent",1060,1,2,67,1.06
"212",2,"congruent",590,1,1,68,0.59
"213",2,"congruent",572,1,1,69,0.572
"217",2,"incongruent",678,1,2,73,0.678
"220",2,"congruent",526,1,1,76,0.526
"221",2,"congruent",522,1,1,77,0.522
"222",2,"congruent",510,1,1,78,0.51
"223",2,"incongruent",890,1,2,79,0.89
"225",2,"incongruent",598,1,2,81,0.598
"227",2,"congruent",676,1,1,83,0.676
"229",2,"congruent",449,1,1,85,0.449
"230",2,"congruent",707,1,1,86,0.707
"231",2,"congruent",557,1,1,87,0.557
"234",2,"incongruent",1257,1,2,90,1.257
"235",2,"congruent",584,1,1,91,0.584
"237",2,"congruent",495,1,1,93,0.495
"241",2,"congruent",612,1,1,97,0.612
"243",2,"incongruent",504,1,2,99,0.504
"244",2,"incongruent",532,1,2,100,0.532
"245",2,"congruent",417,1,1,101,0.417
"246",2,"congruent",475,1,1,102,0.475
"247",2,"incongruent",729,1,2,103,0.729
"249",2,"incongruent",1550,1,2,105,1.55
"251",2,"congruent",698,1,1,107,0.698
"253",2,"incongruent",466,1,2,109,0.466
"254",2,"congruent",588,1,1,110,0.588
"256",2,"congruent",534,1,1,112,0.534
"259",2,"congruent",473,1,1,115,0.473
"263",2,"incongruent",601,1,2,119,0.601
"264",2,"incongruent",616,1,2,120,0.616
"266",2,"incongruent",909,1,2,122,0.909
"267",2,"congruent",404,1,1,123,0.404
"268",2,"incongruent",701,1,2,124,0.701
"271",2,"congruent",663,1,1,127,0.663
"272",2,"congruent",495,1,1,128,0.495
"273",2,"congruent",531,1,1,129,0.531
"274",2,"congruent",455,1,1,130,0.455
"275",2,"incongruent",1258,1,2,131,1.258
"278",2,"incongruent",564,1,2,134,0.564
"279",2,"congruent",674,1,1,135,0.674
"281",2,"incongruent",653,1,2,137,0.653
"284",2,"incongruent",570,1,2,140,0.57
"285",2,"incongruent",632,1,2,141,0.632
"286",2,"congruent",503,1,1,142,0.503
"288",2,"congruent",375,1,1,144,0.375
"292",3,"incongruent",651,1,2,4,0.651
"294",3,"incongruent",655,1,2,6,0.655
"295",3,"incongruent",918,1,2,7,0.918
"296",3,"incongruent",588,1,2,8,0.588
"297",3,"congruent",867,1,1,9,0.867
"298",3,"incongruent",1039,1,2,10,1.039
"300",3,"congruent",1078,1,1,12,1.078
"301",3,"congruent",568,1,1,13,0.568
"303",3,"incongruent",411,1,2,15,0.411
"304",3,"congruent",733,1,1,16,0.733
"305",3,"incongruent",982,1,2,17,0.982
"307",3,"incongruent",1053,1,2,19,1.053
"308",3,"congruent",734,1,1,20,0.734
"309",3,"congruent",688,1,1,21,0.688
"311",3,"congruent",692,1,1,23,0.692
"312",3,"incongruent",765,1,2,24,0.765
"313",3,"congruent",639,1,1,25,0.639
"314",3,"congruent",590,1,1,26,0.59
"315",3,"congruent",604,1,1,27,0.604
"316",3,"congruent",907,1,1,28,0.907
"317",3,"incongruent",889,1,2,29,0.889
"320",3,"incongruent",736,1,2,32,0.736
"321",3,"congruent",866,1,1,33,0.866
"323",3,"congruent",791,1,1,35,0.791
"324",3,"congruent",866,1,1,36,0.866
"326",3,"incongruent",739,1,2,38,0.739
"327",3,"congruent",548,1,1,39,0.548
"328",3,"incongruent",777,1,2,40,0.777
"330",3,"incongruent",1433,1,2,42,1.433
"331",3,"congruent",804,1,1,43,0.804
"332",3,"incongruent",639,1,2,44,0.639
"333",3,"incongruent",670,1,2,45,0.67
"335",3,"congruent",863,1,1,47,0.863
"336",3,"incongruent",908,1,2,48,0.908
"339",3,"congruent",781,1,1,51,0.781
"340",3,"incongruent",624,1,2,52,0.624
"342",3,"incongruent",555,1,2,54,0.555
"344",3,"incongruent",683,1,2,56,0.683
"345",3,"incongruent",748,1,2,57,0.748
"346",3,"congruent",630,1,1,58,0.63
"347",3,"incongruent",812,1,2,59,0.812
"348",3,"congruent",632,1,1,60,0.632
"350",3,"incongruent",864,1,2,62,0.864
"351",3,"incongruent",533,1,2,63,0.533
"352",3,"congruent",561,1,1,64,0.561
"353",3,"incongruent",638,1,2,65,0.638
"354",3,"incongruent",750,1,2,66,0.75
"355",3,"incongruent",712,1,2,67,0.712
"356",3,"congruent",665,1,1,68,0.665
"357",3,"congruent",769,1,1,69,0.769
"361",3,"incongruent",492,1,2,73,0.492
"364",3,"congruent",375,1,1,76,0.375
"365",3,"congruent",639,1,1,77,0.639
"366",3,"congruent",1158,1,1,78,1.158
"367",3,"incongruent",651,1,2,79,0.651
"369",3,"incongruent",756,1,2,81,0.756
"371",3,"congruent",635,1,1,83,0.635
"373",3,"congruent",690,1,1,85,0.69
"374",3,"congruent",1051,1,1,86,1.051
"375",3,"congruent",604,1,1,87,0.604
"377",3,"incongruent",838,1,2,89,0.838
"378",3,"incongruent",586,1,2,90,0.586
"379",3,"congruent",432,1,1,91,0.432
"381",3,"congruent",557,1,1,93,0.557
"385",3,"congruent",1017,1,1,97,1.017
"387",3,"incongruent",656,1,2,99,0.656
"388",3,"incongruent",800,1,2,100,0.8
"389",3,"congruent",499,1,1,101,0.499
"390",3,"congruent",750,1,1,102,0.75
"391",3,"incongruent",928,1,2,103,0.928
"392",3,"incongruent",647,1,2,104,0.647
"393",3,"incongruent",598,1,2,105,0.598
"395",3,"congruent",709,1,1,107,0.709
"397",3,"incongruent",508,1,2,109,0.508
"398",3,"congruent",800,1,1,110,0.8
"400",3,"congruent",1113,1,1,112,1.113
"403",3,"congruent",798,1,1,115,0.798
"407",3,"incongruent",866,1,2,119,0.866
"408",3,"incongruent",935,1,2,120,0.935
"411",3,"congruent",1331,1,1,123,1.331
"412",3,"incongruent",476,1,2,124,0.476
"415",3,"congruent",568,1,1,127,0.568
"416",3,"congruent",773,1,1,128,0.773
"417",3,"congruent",583,1,1,129,0.583
"418",3,"congruent",733,1,1,130,0.733
"419",3,"incongruent",870,1,2,131,0.87
"422",3,"incongruent",616,1,2,134,0.616
"425",3,"incongruent",723,1,2,137,0.723
"428",3,"incongruent",936,1,2,140,0.936
"429",3,"incongruent",670,1,2,141,0.67
"430",3,"congruent",806,1,1,142,0.806
"432",3,"congruent",444,1,1,144,0.444
"438",4,"incongruent",766,1,2,6,0.766
"439",4,"incongruent",873,1,2,7,0.873
"440",4,"incongruent",719,1,2,8,0.719
"441",4,"congruent",792,1,1,9,0.792
"442",4,"incongruent",716,1,2,10,0.716
"444",4,"congruent",792,1,1,12,0.792
"445",4,"congruent",908,1,1,13,0.908
"447",4,"incongruent",821,1,2,15,0.821
"448",4,"congruent",730,1,1,16,0.73
"449",4,"incongruent",787,1,2,17,0.787
"450",4,"congruent",782,1,1,18,0.782
"451",4,"incongruent",778,1,2,19,0.778
"452",4,"congruent",669,1,1,20,0.669
"453",4,"congruent",661,1,1,21,0.661
"455",4,"congruent",677,1,1,23,0.677
"456",4,"incongruent",662,1,2,24,0.662
"457",4,"congruent",726,1,1,25,0.726
"458",4,"congruent",663,1,1,26,0.663
"459",4,"congruent",559,1,1,27,0.559
"460",4,"congruent",605,1,1,28,0.605
"464",4,"incongruent",739,1,2,32,0.739
"465",4,"congruent",741,1,1,33,0.741
"467",4,"congruent",737,1,1,35,0.737
"468",4,"congruent",619,1,1,36,0.619
"471",4,"congruent",1065,1,1,39,1.065
"472",4,"incongruent",731,1,2,40,0.731
"474",4,"incongruent",752,1,2,42,0.752
"475",4,"congruent",666,1,1,43,0.666
"476",4,"incongruent",746,1,2,44,0.746
"477",4,"incongruent",652,1,2,45,0.652
"479",4,"congruent",840,1,1,47,0.84
"480",4,"incongruent",829,1,2,48,0.829
"483",4,"congruent",710,1,1,51,0.71
"484",4,"incongruent",720,1,2,52,0.72
"486",4,"incongruent",763,1,2,54,0.763
"488",4,"incongruent",728,1,2,56,0.728
"489",4,"incongruent",769,1,2,57,0.769
"490",4,"congruent",788,1,1,58,0.788
"491",4,"incongruent",999,1,2,59,0.999
"492",4,"congruent",864,1,1,60,0.864
"494",4,"incongruent",710,1,2,62,0.71
"495",4,"incongruent",823,1,2,63,0.823
"496",4,"congruent",987,1,1,64,0.987
"497",4,"incongruent",788,1,2,65,0.788
"498",4,"incongruent",991,1,2,66,0.991
"499",4,"incongruent",695,1,2,67,0.695
"500",4,"congruent",640,1,1,68,0.64
"501",4,"congruent",688,1,1,69,0.688
"505",4,"incongruent",819,1,2,73,0.819
"508",4,"congruent",675,1,1,76,0.675
"509",4,"congruent",612,1,1,77,0.612
"510",4,"congruent",714,1,1,78,0.714
"511",4,"incongruent",732,1,2,79,0.732
"513",4,"incongruent",606,1,2,81,0.606
"515",4,"congruent",756,1,1,83,0.756
"517",4,"congruent",760,1,1,85,0.76
"518",4,"congruent",739,1,1,86,0.739
"519",4,"congruent",725,1,1,87,0.725
"521",4,"incongruent",728,1,2,89,0.728
"522",4,"incongruent",713,1,2,90,0.713
"523",4,"congruent",682,1,1,91,0.682
"525",4,"congruent",618,1,1,93,0.618
"529",4,"congruent",672,1,1,97,0.672
"531",4,"incongruent",625,1,2,99,0.625
"532",4,"incongruent",712,1,2,100,0.712
"533",4,"congruent",634,1,1,101,0.634
"534",4,"congruent",601,1,1,102,0.601
"535",4,"incongruent",664,1,2,103,0.664
"536",4,"incongruent",719,1,2,104,0.719
"537",4,"incongruent",721,1,2,105,0.721
"539",4,"congruent",723,1,1,107,0.723
"541",4,"incongruent",669,1,2,109,0.669
"542",4,"congruent",886,1,1,110,0.886
"544",4,"congruent",556,1,1,112,0.556
"547",4,"congruent",698,1,1,115,0.698
"551",4,"incongruent",657,1,2,119,0.657
"552",4,"incongruent",625,1,2,120,0.625
"554",4,"incongruent",609,1,2,122,0.609
"555",4,"congruent",552,1,1,123,0.552
"556",4,"incongruent",661,1,2,124,0.661
"559",4,"congruent",683,1,1,127,0.683
"560",4,"congruent",603,1,1,128,0.603
"561",4,"congruent",577,1,1,129,0.577
"562",4,"congruent",535,1,1,130,0.535
"563",4,"incongruent",724,1,2,131,0.724
"566",4,"incongruent",593,1,2,134,0.593
"567",4,"congruent",648,1,1,135,0.648
"569",4,"incongruent",605,1,2,137,0.605
"573",4,"incongruent",782,1,2,141,0.782
"574",4,"congruent",649,1,1,142,0.649
"576",4,"congruent",675,1,1,144,0.675
"582",5,"incongruent",1472,1,2,6,1.472
"583",5,"incongruent",1460,1,2,7,1.46
"584",5,"incongruent",705,1,2,8,0.705
"585",5,"congruent",930,1,1,9,0.93
"586",5,"incongruent",1217,1,2,10,1.217
"588",5,"congruent",1013,1,1,12,1.013
"589",5,"congruent",998,1,1,13,0.998
"591",5,"incongruent",905,1,2,15,0.905
"592",5,"congruent",967,1,1,16,0.967
"593",5,"incongruent",951,1,2,17,0.951
"594",5,"congruent",1062,1,1,18,1.062
"595",5,"incongruent",888,1,2,19,0.888
"596",5,"congruent",1021,1,1,20,1.021
"597",5,"congruent",646,1,1,21,0.646
"599",5,"congruent",667,1,1,23,0.667
"600",5,"incongruent",659,1,2,24,0.659
"601",5,"congruent",643,1,1,25,0.643
"602",5,"congruent",747,1,1,26,0.747
"603",5,"congruent",541,1,1,27,0.541
"604",5,"congruent",730,1,1,28,0.73
"605",5,"incongruent",667,1,2,29,0.667
"608",5,"incongruent",698,1,2,32,0.698
"609",5,"congruent",683,1,1,33,0.683
"611",5,"congruent",581,1,1,35,0.581
"612",5,"congruent",643,1,1,36,0.643
"614",5,"incongruent",786,1,2,38,0.786
"615",5,"congruent",557,1,1,39,0.557
"616",5,"incongruent",691,1,2,40,0.691
"618",5,"incongruent",914,1,2,42,0.914
"619",5,"congruent",680,1,1,43,0.68
"621",5,"incongruent",745,1,2,45,0.745
"623",5,"congruent",653,1,1,47,0.653
"624",5,"incongruent",804,1,2,48,0.804
"627",5,"congruent",698,1,1,51,0.698
"628",5,"incongruent",667,1,2,52,0.667
"630",5,"incongruent",741,1,2,54,0.741
"632",5,"incongruent",683,1,2,56,0.683
"633",5,"incongruent",956,1,2,57,0.956
"634",5,"congruent",699,1,1,58,0.699
"635",5,"incongruent",876,1,2,59,0.876
"636",5,"congruent",1002,1,1,60,1.002
"641",5,"incongruent",725,1,2,65,0.725
"642",5,"incongruent",703,1,2,66,0.703
"643",5,"incongruent",744,1,2,67,0.744
"644",5,"congruent",738,1,1,68,0.738
"645",5,"congruent",940,1,1,69,0.94
"649",5,"incongruent",812,1,2,73,0.812
"652",5,"congruent",1242,1,1,76,1.242
"653",5,"congruent",777,1,1,77,0.777
"654",5,"congruent",763,1,1,78,0.763
"655",5,"incongruent",766,1,2,79,0.766
"657",5,"incongruent",836,1,2,81,0.836
"659",5,"congruent",633,1,1,83,0.633
"661",5,"congruent",675,1,1,85,0.675
"662",5,"congruent",964,1,1,86,0.964
"663",5,"congruent",939,1,1,87,0.939
"665",5,"incongruent",715,1,2,89,0.715
"666",5,"incongruent",613,1,2,90,0.613
"667",5,"congruent",651,1,1,91,0.651
"669",5,"congruent",666,1,1,93,0.666
"673",5,"congruent",879,1,1,97,0.879
"675",5,"incongruent",873,1,2,99,0.873
"676",5,"incongruent",823,1,2,100,0.823
"677",5,"congruent",747,1,1,101,0.747
"678",5,"congruent",757,1,1,102,0.757
"679",5,"incongruent",855,1,2,103,0.855
"680",5,"incongruent",1044,1,2,104,1.044
"681",5,"incongruent",1205,1,2,105,1.205
"683",5,"congruent",1307,1,1,107,1.307
"685",5,"incongruent",897,1,2,109,0.897
"686",5,"congruent",903,1,1,110,0.903
"688",5,"congruent",819,1,1,112,0.819
"691",5,"congruent",771,1,1,115,0.771
"695",5,"incongruent",1183,1,2,119,1.183
"696",5,"incongruent",1493,1,2,120,1.493
"698",5,"incongruent",742,1,2,122,0.742
"699",5,"congruent",632,1,1,123,0.632
"700",5,"incongruent",903,1,2,124,0.903
"703",5,"congruent",623,1,1,127,0.623
"704",5,"congruent",654,1,1,128,0.654
"705",5,"congruent",1173,1,1,129,1.173
"706",5,"congruent",611,1,1,130,0.611
"707",5,"incongruent",953,1,2,131,0.953
"710",5,"incongruent",1223,1,2,134,1.223
"711",5,"congruent",790,1,1,135,0.79
"713",5,"incongruent",657,1,2,137,0.657
"716",5,"incongruent",855,1,2,140,0.855
"717",5,"incongruent",571,1,2,141,0.571
"718",5,"congruent",601,1,1,142,0.601
"720",5,"congruent",531,1,1,144,0.531
"724",6,"incongruent",1159,1,2,4,1.159
"726",6,"incongruent",613,1,2,6,0.613
"727",6,"incongruent",811,1,2,7,0.811
"728",6,"incongruent",679,1,2,8,0.679
"729",6,"congruent",807,1,1,9,0.807
"730",6,"incongruent",779,1,2,10,0.779
"732",6,"congruent",560,1,1,12,0.56
"733",6,"congruent",781,1,1,13,0.781
"735",6,"incongruent",639,1,2,15,0.639
"736",6,"congruent",598,1,1,16,0.598
"737",6,"incongruent",860,1,2,17,0.86
"738",6,"congruent",761,1,1,18,0.761
"739",6,"incongruent",604,1,2,19,0.604
"740",6,"congruent",594,1,1,20,0.594
"741",6,"congruent",1265,1,1,21,1.265
"743",6,"congruent",552,1,1,23,0.552
"744",6,"incongruent",661,1,2,24,0.661
"745",6,"congruent",597,1,1,25,0.597
"746",6,"congruent",588,1,1,26,0.588
"747",6,"congruent",594,1,1,27,0.594
"748",6,"congruent",552,1,1,28,0.552
"752",6,"incongruent",745,1,2,32,0.745
"753",6,"congruent",596,1,1,33,0.596
"755",6,"congruent",585,1,1,35,0.585
"756",6,"congruent",623,1,1,36,0.623
"758",6,"incongruent",1398,1,2,38,1.398
"759",6,"congruent",777,1,1,39,0.777
"760",6,"incongruent",860,1,2,40,0.86
"761",6,"incongruent",793,1,2,41,0.793
"762",6,"incongruent",604,1,2,42,0.604
"763",6,"congruent",554,1,1,43,0.554
"764",6,"incongruent",824,1,2,44,0.824
"765",6,"incongruent",588,1,2,45,0.588
"767",6,"congruent",684,1,1,47,0.684
"768",6,"incongruent",1196,1,2,48,1.196
"771",6,"congruent",527,1,1,51,0.527
"772",6,"incongruent",683,1,2,52,0.683
"774",6,"incongruent",683,1,2,54,0.683
"776",6,"incongruent",575,1,2,56,0.575
"777",6,"incongruent",900,1,2,57,0.9
"778",6,"congruent",674,1,1,58,0.674
"779",6,"incongruent",755,1,2,59,0.755
"780",6,"congruent",877,1,1,60,0.877
"782",6,"incongruent",720,1,2,62,0.72
"783",6,"incongruent",601,1,2,63,0.601
"784",6,"congruent",512,1,1,64,0.512
"785",6,"incongruent",548,1,2,65,0.548
"786",6,"incongruent",729,1,2,66,0.729
"787",6,"incongruent",642,1,2,67,0.642
"788",6,"congruent",498,1,1,68,0.498
"789",6,"congruent",558,1,1,69,0.558
"793",6,"incongruent",667,1,2,73,0.667
"796",6,"congruent",658,1,1,76,0.658
"797",6,"congruent",458,1,1,77,0.458
"798",6,"congruent",565,1,1,78,0.565
"799",6,"incongruent",706,1,2,79,0.706
"801",6,"incongruent",504,1,2,81,0.504
"803",6,"congruent",501,1,1,83,0.501
"805",6,"congruent",535,1,1,85,0.535
"806",6,"congruent",660,1,1,86,0.66
"807",6,"congruent",572,1,1,87,0.572
"809",6,"incongruent",678,1,2,89,0.678
"810",6,"incongruent",462,1,2,90,0.462
"811",6,"congruent",377,1,1,91,0.377
"813",6,"congruent",496,1,1,93,0.496
"817",6,"congruent",584,1,1,97,0.584
"819",6,"incongruent",534,1,2,99,0.534
"821",6,"congruent",1084,1,1,101,1.084
"822",6,"congruent",975,1,1,102,0.975
"823",6,"incongruent",599,1,2,103,0.599
"824",6,"incongruent",1046,1,2,104,1.046
"825",6,"incongruent",639,1,2,105,0.639
"827",6,"congruent",609,1,1,107,0.609
"829",6,"incongruent",694,1,2,109,0.694
"830",6,"congruent",647,1,1,110,0.647
"832",6,"congruent",438,1,1,112,0.438
"835",6,"congruent",678,1,1,115,0.678
"839",6,"incongruent",720,1,2,119,0.72
"840",6,"incongruent",634,1,2,120,0.634
"842",6,"incongruent",599,1,2,122,0.599
"843",6,"congruent",653,1,1,123,0.653
"844",6,"incongruent",637,1,2,124,0.637
"847",6,"congruent",511,1,1,127,0.511
"848",6,"congruent",579,1,1,128,0.579
"849",6,"congruent",633,1,1,129,0.633
"850",6,"congruent",512,1,1,130,0.512
"851",6,"incongruent",884,1,2,131,0.884
"854",6,"incongruent",830,1,2,134,0.83
"855",6,"congruent",834,1,1,135,0.834
"857",6,"incongruent",740,1,2,137,0.74
"860",6,"incongruent",564,1,2,140,0.564
"861",6,"incongruent",986,1,2,141,0.986
"862",6,"congruent",618,1,1,142,0.618
"864",6,"congruent",426,1,1,144,0.426
"868",7,"incongruent",983,1,2,4,0.983
"870",7,"incongruent",554,1,2,6,0.554
"871",7,"incongruent",959,1,2,7,0.959
"872",7,"incongruent",1000,1,2,8,1
"873",7,"congruent",703,1,1,9,0.703
"874",7,"incongruent",967,1,2,10,0.967
"876",7,"congruent",878,1,1,12,0.878
"877",7,"congruent",660,1,1,13,0.66
"879",7,"incongruent",505,1,2,15,0.505
"880",7,"congruent",925,1,1,16,0.925
"881",7,"incongruent",787,1,2,17,0.787
"882",7,"congruent",678,1,1,18,0.678
"883",7,"incongruent",758,1,2,19,0.758
"884",7,"congruent",705,1,1,20,0.705
"885",7,"congruent",585,1,1,21,0.585
"887",7,"congruent",715,1,1,23,0.715
"888",7,"incongruent",621,1,2,24,0.621
"889",7,"congruent",611,1,1,25,0.611
"890",7,"congruent",621,1,1,26,0.621
"891",7,"congruent",608,1,1,27,0.608
"892",7,"congruent",495,1,1,28,0.495
"893",7,"incongruent",483,1,2,29,0.483
"896",7,"incongruent",1248,1,2,32,1.248
"897",7,"congruent",743,1,1,33,0.743
"899",7,"congruent",690,1,1,35,0.69
"900",7,"congruent",514,1,1,36,0.514
"902",7,"incongruent",653,1,2,38,0.653
"903",7,"congruent",580,1,1,39,0.58
"905",7,"incongruent",1176,1,2,41,1.176
"906",7,"incongruent",637,1,2,42,0.637
"907",7,"congruent",588,1,1,43,0.588
"908",7,"incongruent",890,1,2,44,0.89
"909",7,"incongruent",672,1,2,45,0.672
"911",7,"congruent",642,1,1,47,0.642
"912",7,"incongruent",561,1,2,48,0.561
"915",7,"congruent",459,1,1,51,0.459
"916",7,"incongruent",477,1,2,52,0.477
"918",7,"incongruent",744,1,2,54,0.744
"920",7,"incongruent",693,1,2,56,0.693
"921",7,"incongruent",509,1,2,57,0.509
"922",7,"congruent",713,1,1,58,0.713
"923",7,"incongruent",570,1,2,59,0.57
"924",7,"congruent",856,1,1,60,0.856
"926",7,"incongruent",969,1,2,62,0.969
"927",7,"incongruent",753,1,2,63,0.753
"928",7,"congruent",675,1,1,64,0.675
"929",7,"incongruent",523,1,2,65,0.523
"930",7,"incongruent",783,1,2,66,0.783
"931",7,"incongruent",490,1,2,67,0.49
"932",7,"congruent",485,1,1,68,0.485
"933",7,"congruent",808,1,1,69,0.808
"937",7,"incongruent",583,1,2,73,0.583
"940",7,"congruent",477,1,1,76,0.477
"941",7,"congruent",480,1,1,77,0.48
"942",7,"congruent",555,1,1,78,0.555
"943",7,"incongruent",456,1,2,79,0.456
"945",7,"incongruent",448,1,2,81,0.448
"947",7,"congruent",634,1,1,83,0.634
"949",7,"congruent",466,1,1,85,0.466
"950",7,"congruent",533,1,1,86,0.533
"951",7,"congruent",561,1,1,87,0.561
"954",7,"incongruent",1331,1,2,90,1.331
"955",7,"congruent",404,1,1,91,0.404
"961",7,"congruent",804,1,1,97,0.804
"963",7,"incongruent",525,1,2,99,0.525
"966",7,"congruent",459,1,1,102,0.459
"967",7,"incongruent",1006,1,2,103,1.006
"968",7,"incongruent",1046,1,2,104,1.046
"971",7,"congruent",568,1,1,107,0.568
"973",7,"incongruent",452,1,2,109,0.452
"974",7,"congruent",998,1,1,110,0.998
"976",7,"congruent",515,1,1,112,0.515
"979",7,"congruent",643,1,1,115,0.643
"983",7,"incongruent",1040,1,2,119,1.04
"984",7,"incongruent",665,1,2,120,0.665
"987",7,"congruent",546,1,1,123,0.546
"988",7,"incongruent",535,1,2,124,0.535
"991",7,"congruent",483,1,1,127,0.483
"992",7,"congruent",831,1,1,128,0.831
"993",7,"congruent",851,1,1,129,0.851
"994",7,"congruent",600,1,1,130,0.6
"995",7,"incongruent",854,1,2,131,0.854
"998",7,"incongruent",828,1,2,134,0.828
"999",7,"congruent",1076,1,1,135,1.076
"1001",7,"incongruent",785,1,2,137,0.785
"1004",7,"incongruent",1008,1,2,140,1.008
"1005",7,"incongruent",537,1,2,141,0.537
"1006",7,"congruent",374,1,1,142,0.374
"1008",7,"congruent",386,1,1,144,0.386
"1012",8,"incongruent",815,1,2,4,0.815
"1014",8,"incongruent",512,1,2,6,0.512
"1015",8,"incongruent",1036,1,2,7,1.036
"1016",8,"incongruent",622,1,2,8,0.622
"1017",8,"congruent",829,1,1,9,0.829
"1018",8,"incongruent",802,1,2,10,0.802
"1020",8,"congruent",988,1,1,12,0.988
"1021",8,"congruent",821,1,1,13,0.821
"1023",8,"incongruent",546,1,2,15,0.546
"1024",8,"congruent",631,1,1,16,0.631
"1026",8,"congruent",1257,1,1,18,1.257
"1027",8,"incongruent",928,1,2,19,0.928
"1028",8,"congruent",799,1,1,20,0.799
"1029",8,"congruent",675,1,1,21,0.675
"1031",8,"congruent",707,1,1,23,0.707
"1032",8,"incongruent",820,1,2,24,0.82
"1033",8,"congruent",601,1,1,25,0.601
"1034",8,"congruent",655,1,1,26,0.655
"1035",8,"congruent",535,1,1,27,0.535
"1036",8,"congruent",956,1,1,28,0.956
"1037",8,"incongruent",643,1,2,29,0.643
"1040",8,"incongruent",618,1,2,32,0.618
"1041",8,"congruent",873,1,1,33,0.873
"1043",8,"congruent",949,1,1,35,0.949
"1044",8,"congruent",982,1,1,36,0.982
"1046",8,"incongruent",720,1,2,38,0.72
"1047",8,"congruent",577,1,1,39,0.577
"1048",8,"incongruent",759,1,2,40,0.759
"1049",8,"incongruent",1217,1,2,41,1.217
"1050",8,"incongruent",800,1,2,42,0.8
"1051",8,"congruent",788,1,1,43,0.788
"1052",8,"incongruent",607,1,2,44,0.607
"1053",8,"incongruent",782,1,2,45,0.782
"1055",8,"congruent",673,1,1,47,0.673
"1056",8,"incongruent",1209,1,2,48,1.209
"1059",8,"congruent",1099,1,1,51,1.099
"1060",8,"incongruent",558,1,2,52,0.558
"1062",8,"incongruent",662,1,2,54,0.662
"1064",8,"incongruent",589,1,2,56,0.589
"1065",8,"incongruent",795,1,2,57,0.795
"1066",8,"congruent",638,1,1,58,0.638
"1067",8,"incongruent",758,1,2,59,0.758
"1068",8,"congruent",664,1,1,60,0.664
"1070",8,"incongruent",932,1,2,62,0.932
"1071",8,"incongruent",635,1,2,63,0.635
"1072",8,"congruent",602,1,1,64,0.602
"1073",8,"incongruent",672,1,2,65,0.672
"1074",8,"incongruent",649,1,2,66,0.649
"1075",8,"incongruent",600,1,2,67,0.6
"1076",8,"congruent",647,1,1,68,0.647
"1077",8,"congruent",710,1,1,69,0.71
"1081",8,"incongruent",652,1,2,73,0.652
"1084",8,"congruent",583,1,1,76,0.583
"1085",8,"congruent",630,1,1,77,0.63
"1086",8,"congruent",1021,1,1,78,1.021
"1087",8,"incongruent",502,1,2,79,0.502
"1089",8,"incongruent",695,1,2,81,0.695
"1091",8,"congruent",557,1,1,83,0.557
"1093",8,"congruent",568,1,1,85,0.568
"1094",8,"congruent",998,1,1,86,0.998
"1095",8,"congruent",622,1,1,87,0.622
"1097",8,"incongruent",921,1,2,89,0.921
"1098",8,"incongruent",544,1,2,90,0.544
"1099",8,"congruent",517,1,1,91,0.517
"1101",8,"congruent",592,1,1,93,0.592
"1105",8,"congruent",753,1,1,97,0.753
"1107",8,"incongruent",664,1,2,99,0.664
"1108",8,"incongruent",1416,1,2,100,1.416
"1109",8,"congruent",499,1,1,101,0.499
"1110",8,"congruent",703,1,1,102,0.703
"1111",8,"incongruent",1205,1,2,103,1.205
"1112",8,"incongruent",527,1,2,104,0.527
"1113",8,"incongruent",459,1,2,105,0.459
"1115",8,"congruent",513,1,1,107,0.513
"1117",8,"incongruent",445,1,2,109,0.445
"1118",8,"congruent",1231,1,1,110,1.231
"1120",8,"congruent",542,1,1,112,0.542
"1123",8,"congruent",762,1,1,115,0.762
"1127",8,"incongruent",550,1,2,119,0.55
"1128",8,"incongruent",1067,1,2,120,1.067
"1130",8,"incongruent",560,1,2,122,0.56
"1131",8,"congruent",462,1,1,123,0.462
"1132",8,"incongruent",433,1,2,124,0.433
"1135",8,"congruent",492,1,1,127,0.492
"1136",8,"congruent",559,1,1,128,0.559
"1137",8,"congruent",493,1,1,129,0.493
"1138",8,"congruent",593,1,1,130,0.593
"1139",8,"incongruent",1263,1,2,131,1.263
"1142",8,"incongruent",557,1,2,134,0.557
"1143",8,"congruent",1090,1,1,135,1.09
"1145",8,"incongruent",586,1,2,137,0.586
"1148",8,"incongruent",853,1,2,140,0.853
"1149",8,"incongruent",506,1,2,141,0.506
"1150",8,"congruent",526,1,1,142,0.526
"1152",8,"congruent",456,1,1,144,0.456
"1156",9,"incongruent",918,1,2,4,0.918
"1158",9,"incongruent",642,1,2,6,0.642
"1159",9,"incongruent",858,1,2,7,0.858
"1160",9,"incongruent",1246,1,2,8,1.246
"1161",9,"congruent",1221,1,1,9,1.221
"1162",9,"incongruent",1155,1,2,10,1.155
"1164",9,"congruent",1561,1,1,12,1.561
"1165",9,"congruent",1688,1,1,13,1.688
"1167",9,"incongruent",527,1,2,15,0.527
"1168",9,"congruent",604,1,1,16,0.604
"1169",9,"incongruent",666,1,2,17,0.666
"1170",9,"congruent",610,1,1,18,0.61
"1171",9,"incongruent",721,1,2,19,0.721
"1172",9,"congruent",610,1,1,20,0.61
"1173",9,"congruent",504,1,1,21,0.504
"1175",9,"congruent",504,1,1,23,0.504
"1176",9,"incongruent",644,1,2,24,0.644
"1177",9,"congruent",635,1,1,25,0.635
"1178",9,"congruent",442,1,1,26,0.442
"1179",9,"congruent",413,1,1,27,0.413
"1180",9,"congruent",462,1,1,28,0.462
"1181",9,"incongruent",537,1,2,29,0.537
"1184",9,"incongruent",805,1,2,32,0.805
"1185",9,"congruent",784,1,1,33,0.784
"1187",9,"congruent",702,1,1,35,0.702
"1188",9,"congruent",607,1,1,36,0.607
"1191",9,"congruent",531,1,1,39,0.531
"1192",9,"incongruent",495,1,2,40,0.495
"1193",9,"incongruent",731,1,2,41,0.731
"1194",9,"incongruent",492,1,2,42,0.492
"1195",9,"congruent",496,1,1,43,0.496
"1196",9,"incongruent",484,1,2,44,0.484
"1197",9,"incongruent",507,1,2,45,0.507
"1200",9,"incongruent",1060,1,2,48,1.06
"1203",9,"congruent",674,1,1,51,0.674
"1204",9,"incongruent",562,1,2,52,0.562
"1206",9,"incongruent",1907,1,2,54,1.907
"1208",9,"incongruent",757,1,2,56,0.757
"1209",9,"incongruent",984,1,2,57,0.984
"1210",9,"congruent",783,1,1,58,0.783
"1211",9,"incongruent",578,1,2,59,0.578
"1212",9,"congruent",496,1,1,60,0.496
"1215",9,"incongruent",597,1,2,63,0.597
"1216",9,"congruent",508,1,1,64,0.508
"1217",9,"incongruent",464,1,2,65,0.464
"1218",9,"incongruent",539,1,2,66,0.539
"1219",9,"incongruent",816,1,2,67,0.816
"1220",9,"congruent",596,1,1,68,0.596
"1221",9,"congruent",529,1,1,69,0.529
"1225",9,"incongruent",636,1,2,73,0.636
"1228",9,"congruent",514,1,1,76,0.514
"1229",9,"congruent",518,1,1,77,0.518
"1230",9,"congruent",850,1,1,78,0.85
"1231",9,"incongruent",535,1,2,79,0.535
"1233",9,"incongruent",550,1,2,81,0.55
"1235",9,"congruent",479,1,1,83,0.479
"1237",9,"congruent",479,1,1,85,0.479
"1238",9,"congruent",505,1,1,86,0.505
"1239",9,"congruent",1309,1,1,87,1.309
"1241",9,"incongruent",791,1,2,89,0.791
"1242",9,"incongruent",490,1,2,90,0.49
"1243",9,"congruent",454,1,1,91,0.454
"1245",9,"congruent",502,1,1,93,0.502
"1249",9,"congruent",1395,1,1,97,1.395
"1251",9,"incongruent",511,1,2,99,0.511
"1252",9,"incongruent",675,1,2,100,0.675
"1253",9,"congruent",524,1,1,101,0.524
"1254",9,"congruent",600,1,1,102,0.6
"1255",9,"incongruent",1414,1,2,103,1.414
"1256",9,"incongruent",633,1,2,104,0.633
"1257",9,"incongruent",545,1,2,105,0.545
"1259",9,"congruent",415,1,1,107,0.415
"1261",9,"incongruent",435,1,2,109,0.435
"1262",9,"congruent",757,1,1,110,0.757
"1264",9,"congruent",475,1,1,112,0.475
"1267",9,"congruent",542,1,1,115,0.542
"1271",9,"incongruent",549,1,2,119,0.549
"1272",9,"incongruent",634,1,2,120,0.634
"1274",9,"incongruent",630,1,2,122,0.63
"1275",9,"congruent",484,1,1,123,0.484
"1276",9,"incongruent",431,1,2,124,0.431
"1279",9,"congruent",441,1,1,127,0.441
"1281",9,"congruent",550,1,1,129,0.55
"1282",9,"congruent",507,1,1,130,0.507
"1283",9,"incongruent",710,1,2,131,0.71
"1286",9,"incongruent",449,1,2,134,0.449
"1287",9,"congruent",524,1,1,135,0.524
"1289",9,"incongruent",619,1,2,137,0.619
"1292",9,"incongruent",562,1,2,140,0.562
"1293",9,"incongruent",703,1,2,141,0.703
"1294",9,"congruent",592,1,1,142,0.592
"1296",9,"congruent",581,1,1,144,0.581
"1300",10,"incongruent",841,1,2,4,0.841
"1302",10,"incongruent",711,1,2,6,0.711
"1303",10,"incongruent",792,1,2,7,0.792
"1304",10,"incongruent",747,1,2,8,0.747
"1305",10,"congruent",1157,1,1,9,1.157
"1306",10,"incongruent",850,1,2,10,0.85
"1308",10,"congruent",691,1,1,12,0.691
"1309",10,"congruent",756,1,1,13,0.756
"1311",10,"incongruent",816,1,2,15,0.816
"1312",10,"congruent",731,1,1,16,0.731
"1313",10,"incongruent",798,1,2,17,0.798
"1314",10,"congruent",721,1,1,18,0.721
"1315",10,"incongruent",899,1,2,19,0.899
"1316",10,"congruent",681,1,1,20,0.681
"1317",10,"congruent",689,1,1,21,0.689
"1319",10,"congruent",660,1,1,23,0.66
"1320",10,"incongruent",756,1,2,24,0.756
"1321",10,"congruent",627,1,1,25,0.627
"1322",10,"congruent",634,1,1,26,0.634
"1323",10,"congruent",722,1,1,27,0.722
"1324",10,"congruent",1043,1,1,28,1.043
"1325",10,"incongruent",1189,1,2,29,1.189
"1328",10,"incongruent",797,1,2,32,0.797
"1329",10,"congruent",689,1,1,33,0.689
"1331",10,"congruent",665,1,1,35,0.665
"1332",10,"congruent",729,1,1,36,0.729
"1334",10,"incongruent",955,1,2,38,0.955
"1335",10,"congruent",683,1,1,39,0.683
"1337",10,"incongruent",930,1,2,41,0.93
"1338",10,"incongruent",745,1,2,42,0.745
"1339",10,"congruent",675,1,1,43,0.675
"1340",10,"incongruent",828,1,2,44,0.828
"1341",10,"incongruent",735,1,2,45,0.735
"1343",10,"congruent",924,1,1,47,0.924
"1344",10,"incongruent",747,1,2,48,0.747
"1347",10,"congruent",702,1,1,51,0.702
"1348",10,"incongruent",935,1,2,52,0.935
"1350",10,"incongruent",698,1,2,54,0.698
"1352",10,"incongruent",725,1,2,56,0.725
"1353",10,"incongruent",719,1,2,57,0.719
"1354",10,"congruent",672,1,1,58,0.672
"1355",10,"incongruent",753,1,2,59,0.753
"1356",10,"congruent",747,1,1,60,0.747
"1358",10,"incongruent",774,1,2,62,0.774
"1359",10,"incongruent",633,1,2,63,0.633
"1360",10,"congruent",672,1,1,64,0.672
"1361",10,"incongruent",649,1,2,65,0.649
"1362",10,"incongruent",976,1,2,66,0.976
"1363",10,"incongruent",656,1,2,67,0.656
"1364",10,"congruent",696,1,1,68,0.696
"1365",10,"congruent",633,1,1,69,0.633
"1369",10,"incongruent",667,1,2,73,0.667
"1372",10,"congruent",656,1,1,76,0.656
"1373",10,"congruent",640,1,1,77,0.64
"1374",10,"congruent",696,1,1,78,0.696
"1375",10,"incongruent",688,1,2,79,0.688
"1377",10,"incongruent",705,1,2,81,0.705
"1379",10,"congruent",724,1,1,83,0.724
"1381",10,"congruent",702,1,1,85,0.702
"1382",10,"congruent",687,1,1,86,0.687
"1383",10,"congruent",728,1,1,87,0.728
"1385",10,"incongruent",704,1,2,89,0.704
"1386",10,"incongruent",769,1,2,90,0.769
"1387",10,"congruent",580,1,1,91,0.58
"1389",10,"congruent",632,1,1,93,0.632
"1393",10,"congruent",667,1,1,97,0.667
"1395",10,"incongruent",945,1,2,99,0.945
"1396",10,"incongruent",721,1,2,100,0.721
"1397",10,"congruent",714,1,1,101,0.714
"1398",10,"congruent",731,1,1,102,0.731
"1399",10,"incongruent",653,1,2,103,0.653
"1400",10,"incongruent",869,1,2,104,0.869
"1401",10,"incongruent",675,1,2,105,0.675
"1403",10,"congruent",657,1,1,107,0.657
"1405",10,"incongruent",703,1,2,109,0.703
"1406",10,"congruent",792,1,1,110,0.792
"1408",10,"congruent",506,1,1,112,0.506
"1411",10,"congruent",680,1,1,115,0.68
"1415",10,"incongruent",625,1,2,119,0.625
"1416",10,"incongruent",664,1,2,120,0.664
"1418",10,"incongruent",780,1,2,122,0.78
"1419",10,"congruent",696,1,1,123,0.696
"1420",10,"incongruent",648,1,2,124,0.648
"1423",10,"congruent",510,1,1,127,0.51
"1424",10,"congruent",682,1,1,128,0.682
"1425",10,"congruent",562,1,1,129,0.562
"1426",10,"congruent",688,1,1,130,0.688
"1427",10,"incongruent",1049,1,2,131,1.049
"1430",10,"incongruent",1070,1,2,134,1.07
"1431",10,"congruent",672,1,1,135,0.672
"1433",10,"incongruent",663,1,2,137,0.663
"1436",10,"incongruent",871,1,2,140,0.871
"1437",10,"incongruent",692,1,2,141,0.692
"1438",10,"congruent",949,1,1,142,0.949
"1440",10,"congruent",602,1,1,144,0.602
"1444",11,"incongruent",1169,1,2,4,1.169
"1446",11,"incongruent",775,1,2,6,0.775
"1447",11,"incongruent",1225,1,2,7,1.225
"1448",11,"incongruent",688,1,2,8,0.688
"1449",11,"congruent",672,1,1,9,0.672
"1452",11,"congruent",749,1,1,12,0.749
"1453",11,"congruent",647,1,1,13,0.647
"1455",11,"incongruent",1241,1,2,15,1.241
"1456",11,"congruent",695,1,1,16,0.695
"1457",11,"incongruent",824,1,2,17,0.824
"1458",11,"congruent",1492,1,1,18,1.492
"1460",11,"congruent",1213,1,1,20,1.213
"1461",11,"congruent",1019,1,1,21,1.019
"1463",11,"congruent",674,1,1,23,0.674
"1464",11,"incongruent",931,1,2,24,0.931
"1465",11,"congruent",697,1,1,25,0.697
"1466",11,"congruent",874,1,1,26,0.874
"1467",11,"congruent",727,1,1,27,0.727
"1468",11,"congruent",697,1,1,28,0.697
"1469",11,"incongruent",834,1,2,29,0.834
"1472",11,"incongruent",705,1,2,32,0.705
"1473",11,"congruent",1083,1,1,33,1.083
"1475",11,"congruent",601,1,1,35,0.601
"1476",11,"congruent",1016,1,1,36,1.016
"1478",11,"incongruent",724,1,2,38,0.724
"1479",11,"congruent",661,1,1,39,0.661
"1480",11,"incongruent",693,1,2,40,0.693
"1481",11,"incongruent",998,1,2,41,0.998
"1482",11,"incongruent",551,1,2,42,0.551
"1483",11,"congruent",532,1,1,43,0.532
"1484",11,"incongruent",648,1,2,44,0.648
"1485",11,"incongruent",1288,1,2,45,1.288
"1487",11,"congruent",1093,1,1,47,1.093
"1488",11,"incongruent",775,1,2,48,0.775
"1491",11,"congruent",833,1,1,51,0.833
"1492",11,"incongruent",613,1,2,52,0.613
"1494",11,"incongruent",759,1,2,54,0.759
"1496",11,"incongruent",802,1,2,56,0.802
"1497",11,"incongruent",741,1,2,57,0.741
"1498",11,"congruent",775,1,1,58,0.775
"1499",11,"incongruent",794,1,2,59,0.794
"1500",11,"congruent",781,1,1,60,0.781
"1502",11,"incongruent",1086,1,2,62,1.086
"1503",11,"incongruent",729,1,2,63,0.729
"1504",11,"congruent",851,1,1,64,0.851
"1505",11,"incongruent",727,1,2,65,0.727
"1506",11,"incongruent",921,1,2,66,0.921
"1507",11,"incongruent",959,1,2,67,0.959
"1508",11,"congruent",599,1,1,68,0.599
"1509",11,"congruent",677,1,1,69,0.677
"1513",11,"incongruent",853,1,2,73,0.853
"1516",11,"congruent",568,1,1,76,0.568
"1517",11,"congruent",557,1,1,77,0.557
"1518",11,"congruent",667,1,1,78,0.667
"1519",11,"incongruent",1043,1,2,79,1.043
"1521",11,"incongruent",1324,1,2,81,1.324
"1523",11,"congruent",594,1,1,83,0.594
"1525",11,"congruent",564,1,1,85,0.564
"1526",11,"congruent",674,1,1,86,0.674
"1527",11,"congruent",794,1,1,87,0.794
"1529",11,"incongruent",1053,1,2,89,1.053
"1530",11,"incongruent",487,1,2,90,0.487
"1531",11,"congruent",466,1,1,91,0.466
"1533",11,"congruent",452,1,1,93,0.452
"1537",11,"congruent",735,1,1,97,0.735
"1539",11,"incongruent",662,1,2,99,0.662
"1540",11,"incongruent",766,1,2,100,0.766
"1541",11,"congruent",545,1,1,101,0.545
"1542",11,"congruent",669,1,1,102,0.669
"1543",11,"incongruent",653,1,2,103,0.653
"1544",11,"incongruent",637,1,2,104,0.637
"1545",11,"incongruent",628,1,2,105,0.628
"1547",11,"congruent",610,1,1,107,0.61
"1549",11,"incongruent",952,1,2,109,0.952
"1550",11,"congruent",1087,1,1,110,1.087
"1552",11,"congruent",546,1,1,112,0.546
"1555",11,"congruent",734,1,1,115,0.734
"1559",11,"incongruent",494,1,2,119,0.494
"1560",11,"incongruent",738,1,2,120,0.738
"1562",11,"incongruent",645,1,2,122,0.645
"1563",11,"congruent",644,1,1,123,0.644
"1564",11,"incongruent",980,1,2,124,0.98
"1567",11,"congruent",549,1,1,127,0.549
"1568",11,"congruent",747,1,1,128,0.747
"1569",11,"congruent",692,1,1,129,0.692
"1570",11,"congruent",589,1,1,130,0.589
"1571",11,"incongruent",707,1,2,131,0.707
"1574",11,"incongruent",1397,1,2,134,1.397
"1575",11,"congruent",600,1,1,135,0.6
"1577",11,"incongruent",613,1,2,137,0.613
"1580",11,"incongruent",829,1,2,140,0.829
"1581",11,"incongruent",573,1,2,141,0.573
"1582",11,"congruent",799,1,1,142,0.799
"1584",11,"congruent",485,1,1,144,0.485
"1588",12,"incongruent",1101,1,2,4,1.101
"1590",12,"incongruent",646,1,2,6,0.646
"1591",12,"incongruent",1022,1,2,7,1.022
"1592",12,"incongruent",999,1,2,8,0.999
"1593",12,"congruent",1127,1,1,9,1.127
"1594",12,"incongruent",1028,1,2,10,1.028
"1596",12,"congruent",968,1,1,12,0.968
"1597",12,"congruent",872,1,1,13,0.872
"1599",12,"incongruent",728,1,2,15,0.728
"1600",12,"congruent",626,1,1,16,0.626
"1601",12,"incongruent",889,1,2,17,0.889
"1602",12,"congruent",943,1,1,18,0.943
"1603",12,"incongruent",950,1,2,19,0.95
"1604",12,"congruent",662,1,1,20,0.662
"1605",12,"congruent",742,1,1,21,0.742
"1607",12,"congruent",700,1,1,23,0.7
"1608",12,"incongruent",989,1,2,24,0.989
"1609",12,"congruent",694,1,1,25,0.694
"1610",12,"congruent",975,1,1,26,0.975
"1611",12,"congruent",855,1,1,27,0.855
"1612",12,"congruent",940,1,1,28,0.94
"1613",12,"incongruent",875,1,2,29,0.875
"1616",12,"incongruent",1540,1,2,32,1.54
"1617",12,"congruent",1122,1,1,33,1.122
"1619",12,"congruent",673,1,1,35,0.673
"1620",12,"congruent",962,1,1,36,0.962
"1622",12,"incongruent",812,1,2,38,0.812
"1623",12,"congruent",752,1,1,39,0.752
"1624",12,"incongruent",738,1,2,40,0.738
"1625",12,"incongruent",1348,1,2,41,1.348
"1626",12,"incongruent",878,1,2,42,0.878
"1627",12,"congruent",835,1,1,43,0.835
"1628",12,"incongruent",896,1,2,44,0.896
"1629",12,"incongruent",1126,1,2,45,1.126
"1631",12,"congruent",1479,1,1,47,1.479
"1632",12,"incongruent",980,1,2,48,0.98
"1635",12,"congruent",919,1,1,51,0.919
"1636",12,"incongruent",718,1,2,52,0.718
"1638",12,"incongruent",905,1,2,54,0.905
"1640",12,"incongruent",960,1,2,56,0.96
"1641",12,"incongruent",791,1,2,57,0.791
"1642",12,"congruent",803,1,1,58,0.803
"1643",12,"incongruent",790,1,2,59,0.79
"1644",12,"congruent",1098,1,1,60,1.098
"1646",12,"incongruent",783,1,2,62,0.783
"1647",12,"incongruent",730,1,2,63,0.73
"1648",12,"congruent",1124,1,1,64,1.124
"1649",12,"incongruent",984,1,2,65,0.984
"1650",12,"incongruent",1088,1,2,66,1.088
"1651",12,"incongruent",643,1,2,67,0.643
"1652",12,"congruent",923,1,1,68,0.923
"1653",12,"congruent",745,1,1,69,0.745
"1657",12,"incongruent",796,1,2,73,0.796
"1660",12,"congruent",908,1,1,76,0.908
"1661",12,"congruent",1507,1,1,77,1.507
"1662",12,"congruent",808,1,1,78,0.808
"1663",12,"incongruent",652,1,2,79,0.652
"1665",12,"incongruent",846,1,2,81,0.846
"1667",12,"congruent",812,1,1,83,0.812
"1669",12,"congruent",714,1,1,85,0.714
"1670",12,"congruent",627,1,1,86,0.627
"1671",12,"congruent",794,1,1,87,0.794
"1673",12,"incongruent",761,1,2,89,0.761
"1674",12,"incongruent",563,1,2,90,0.563
"1675",12,"congruent",801,1,1,91,0.801
"1677",12,"congruent",774,1,1,93,0.774
"1681",12,"congruent",889,1,1,97,0.889
"1683",12,"incongruent",766,1,2,99,0.766
"1684",12,"incongruent",737,1,2,100,0.737
"1685",12,"congruent",595,1,1,101,0.595
"1686",12,"congruent",961,1,1,102,0.961
"1687",12,"incongruent",817,1,2,103,0.817
"1688",12,"incongruent",989,1,2,104,0.989
"1689",12,"incongruent",613,1,2,105,0.613
"1691",12,"congruent",519,1,1,107,0.519
"1693",12,"incongruent",450,1,2,109,0.45
"1694",12,"congruent",1093,1,1,110,1.093
"1696",12,"congruent",569,1,1,112,0.569
"1699",12,"congruent",841,1,1,115,0.841
"1703",12,"incongruent",646,1,2,119,0.646
"1704",12,"incongruent",773,1,2,120,0.773
"1707",12,"congruent",975,1,1,123,0.975
"1708",12,"incongruent",895,1,2,124,0.895
"1711",12,"congruent",1430,1,1,127,1.43
"1712",12,"congruent",714,1,1,128,0.714
"1713",12,"congruent",707,1,1,129,0.707
"1714",12,"congruent",668,1,1,130,0.668
"1718",12,"incongruent",967,1,2,134,0.967
"1719",12,"congruent",847,1,1,135,0.847
"1721",12,"incongruent",1055,1,2,137,1.055
"1724",12,"incongruent",957,1,2,140,0.957
"1725",12,"incongruent",1172,1,2,141,1.172
"1726",12,"congruent",1097,1,1,142,1.097
"1728",12,"congruent",418,1,1,144,0.418
"1732",13,"incongruent",855,1,2,4,0.855
"1734",13,"incongruent",577,1,2,6,0.577
"1735",13,"incongruent",895,1,2,7,0.895
"1736",13,"incongruent",589,1,2,8,0.589
"1737",13,"congruent",603,1,1,9,0.603
"1738",13,"incongruent",489,1,2,10,0.489
"1740",13,"congruent",717,1,1,12,0.717
"1741",13,"congruent",798,1,1,13,0.798
"1744",13,"congruent",649,1,1,16,0.649
"1745",13,"incongruent",633,1,2,17,0.633
"1746",13,"congruent",704,1,1,18,0.704
"1748",13,"congruent",1336,1,1,20,1.336
"1749",13,"congruent",617,1,1,21,0.617
"1751",13,"congruent",677,1,1,23,0.677
"1752",13,"incongruent",885,1,2,24,0.885
"1753",13,"congruent",467,1,1,25,0.467
"1754",13,"congruent",493,1,1,26,0.493
"1755",13,"congruent",529,1,1,27,0.529
"1756",13,"congruent",845,1,1,28,0.845
"1757",13,"incongruent",714,1,2,29,0.714
"1760",13,"incongruent",831,1,2,32,0.831
"1761",13,"congruent",691,1,1,33,0.691
"1763",13,"congruent",672,1,1,35,0.672
"1764",13,"congruent",551,1,1,36,0.551
"1766",13,"incongruent",676,1,2,38,0.676
"1767",13,"congruent",516,1,1,39,0.516
"1768",13,"incongruent",680,1,2,40,0.68
"1769",13,"incongruent",769,1,2,41,0.769
"1770",13,"incongruent",667,1,2,42,0.667
"1771",13,"congruent",507,1,1,43,0.507
"1772",13,"incongruent",631,1,2,44,0.631
"1773",13,"incongruent",558,1,2,45,0.558
"1775",13,"congruent",510,1,1,47,0.51
"1776",13,"incongruent",557,1,2,48,0.557
"1779",13,"congruent",736,1,1,51,0.736
"1780",13,"incongruent",1210,1,2,52,1.21
"1782",13,"incongruent",765,1,2,54,0.765
"1786",13,"congruent",1286,1,1,58,1.286
"1787",13,"incongruent",910,1,2,59,0.91
"1788",13,"congruent",853,1,1,60,0.853
"1791",13,"incongruent",1506,1,2,63,1.506
"1792",13,"congruent",1176,1,1,64,1.176
"1793",13,"incongruent",677,1,2,65,0.677
"1794",13,"incongruent",1021,1,2,66,1.021
"1795",13,"incongruent",998,1,2,67,0.998
"1796",13,"congruent",767,1,1,68,0.767
"1797",13,"congruent",650,1,1,69,0.65
"1801",13,"incongruent",774,1,2,73,0.774
"1804",13,"congruent",653,1,1,76,0.653
"1805",13,"congruent",589,1,1,77,0.589
"1806",13,"congruent",763,1,1,78,0.763
"1807",13,"incongruent",1221,1,2,79,1.221
"1809",13,"incongruent",921,1,2,81,0.921
"1811",13,"congruent",591,1,1,83,0.591
"1813",13,"congruent",579,1,1,85,0.579
"1814",13,"congruent",713,1,1,86,0.713
"1815",13,"congruent",834,1,1,87,0.834
"1817",13,"incongruent",962,1,2,89,0.962
"1818",13,"incongruent",673,1,2,90,0.673
"1819",13,"congruent",754,1,1,91,0.754
"1821",13,"congruent",508,1,1,93,0.508
"1825",13,"congruent",810,1,1,97,0.81
"1827",13,"incongruent",629,1,2,99,0.629
"1828",13,"incongruent",668,1,2,100,0.668
"1829",13,"congruent",492,1,1,101,0.492
"1830",13,"congruent",592,1,1,102,0.592
"1832",13,"incongruent",1266,1,2,104,1.266
"1833",13,"incongruent",714,1,2,105,0.714
"1835",13,"congruent",616,1,1,107,0.616
"1837",13,"incongruent",796,1,2,109,0.796
"1840",13,"congruent",474,1,1,112,0.474
"1843",13,"congruent",583,1,1,115,0.583
"1847",13,"incongruent",605,1,2,119,0.605
"1848",13,"incongruent",747,1,2,120,0.747
"1850",13,"incongruent",680,1,2,122,0.68
"1851",13,"congruent",440,1,1,123,0.44
"1852",13,"incongruent",523,1,2,124,0.523
"1855",13,"congruent",707,1,1,127,0.707
"1856",13,"congruent",668,1,1,128,0.668
"1857",13,"congruent",683,1,1,129,0.683
"1858",13,"congruent",572,1,1,130,0.572
"1859",13,"incongruent",946,1,2,131,0.946
"1862",13,"incongruent",897,1,2,134,0.897
"1863",13,"congruent",799,1,1,135,0.799
"1865",13,"incongruent",1050,1,2,137,1.05
"1868",13,"incongruent",569,1,2,140,0.569
"1869",13,"incongruent",671,1,2,141,0.671
"1870",13,"congruent",495,1,1,142,0.495
"1872",13,"congruent",488,1,1,144,0.488
"1876",14,"incongruent",1014,1,2,4,1.014
"1878",14,"incongruent",1115,1,2,6,1.115
"1880",14,"incongruent",906,1,2,8,0.906
"1881",14,"congruent",904,1,1,9,0.904
"1882",14,"incongruent",870,1,2,10,0.87
"1884",14,"congruent",812,1,1,12,0.812
"1885",14,"congruent",984,1,1,13,0.984
"1887",14,"incongruent",703,1,2,15,0.703
"1888",14,"congruent",873,1,1,16,0.873
"1889",14,"incongruent",1030,1,2,17,1.03
"1890",14,"congruent",895,1,1,18,0.895
"1891",14,"incongruent",1389,1,2,19,1.389
"1892",14,"congruent",671,1,1,20,0.671
"1893",14,"congruent",727,1,1,21,0.727
"1895",14,"congruent",703,1,1,23,0.703
"1896",14,"incongruent",824,1,2,24,0.824
"1897",14,"congruent",604,1,1,25,0.604
"1898",14,"congruent",691,1,1,26,0.691
"1899",14,"congruent",451,1,1,27,0.451
"1900",14,"congruent",805,1,1,28,0.805
"1901",14,"incongruent",921,1,2,29,0.921
"1904",14,"incongruent",708,1,2,32,0.708
"1905",14,"congruent",869,1,1,33,0.869
"1907",14,"congruent",644,1,1,35,0.644
"1908",14,"congruent",723,1,1,36,0.723
"1910",14,"incongruent",698,1,2,38,0.698
"1911",14,"congruent",667,1,1,39,0.667
"1912",14,"incongruent",539,1,2,40,0.539
"1913",14,"incongruent",920,1,2,41,0.92
"1914",14,"incongruent",871,1,2,42,0.871
"1915",14,"congruent",603,1,1,43,0.603
"1916",14,"incongruent",962,1,2,44,0.962
"1917",14,"incongruent",698,1,2,45,0.698
"1919",14,"congruent",831,1,1,47,0.831
"1920",14,"incongruent",851,1,2,48,0.851
"1923",14,"congruent",811,1,1,51,0.811
"1924",14,"incongruent",783,1,2,52,0.783
"1926",14,"incongruent",756,1,2,54,0.756
"1928",14,"incongruent",660,1,2,56,0.66
"1929",14,"incongruent",780,1,2,57,0.78
"1930",14,"congruent",655,1,1,58,0.655
"1931",14,"incongruent",854,1,2,59,0.854
"1932",14,"congruent",907,1,1,60,0.907
"1934",14,"incongruent",800,1,2,62,0.8
"1935",14,"incongruent",612,1,2,63,0.612
"1936",14,"congruent",874,1,1,64,0.874
"1937",14,"incongruent",607,1,2,65,0.607
"1938",14,"incongruent",1246,1,2,66,1.246
"1939",14,"incongruent",829,1,2,67,0.829
"1940",14,"congruent",641,1,1,68,0.641
"1941",14,"congruent",536,1,1,69,0.536
"1945",14,"incongruent",661,1,2,73,0.661
"1948",14,"congruent",695,1,1,76,0.695
"1949",14,"congruent",664,1,1,77,0.664
"1950",14,"congruent",672,1,1,78,0.672
"1951",14,"incongruent",736,1,2,79,0.736
"1953",14,"incongruent",711,1,2,81,0.711
"1955",14,"congruent",740,1,1,83,0.74
"1957",14,"congruent",478,1,1,85,0.478
"1958",14,"congruent",577,1,1,86,0.577
"1959",14,"congruent",879,1,1,87,0.879
"1961",14,"incongruent",981,1,2,89,0.981
"1962",14,"incongruent",661,1,2,90,0.661
"1963",14,"congruent",517,1,1,91,0.517
"1965",14,"congruent",562,1,1,93,0.562
"1969",14,"congruent",681,1,1,97,0.681
"1971",14,"incongruent",913,1,2,99,0.913
"1972",14,"incongruent",928,1,2,100,0.928
"1973",14,"congruent",463,1,1,101,0.463
"1974",14,"congruent",929,1,1,102,0.929
"1975",14,"incongruent",672,1,2,103,0.672
"1976",14,"incongruent",656,1,2,104,0.656
"1977",14,"incongruent",880,1,2,105,0.88
"1979",14,"congruent",744,1,1,107,0.744
"1981",14,"incongruent",880,1,2,109,0.88
"1982",14,"congruent",710,1,1,110,0.71
"1984",14,"congruent",519,1,1,112,0.519
"1987",14,"congruent",587,1,1,115,0.587
"1991",14,"incongruent",1021,1,2,119,1.021
"1992",14,"incongruent",734,1,2,120,0.734
"1995",14,"congruent",742,1,1,123,0.742
"1996",14,"incongruent",1040,1,2,124,1.04
"1999",14,"congruent",929,1,1,127,0.929
"2000",14,"congruent",576,1,1,128,0.576
"2001",14,"congruent",1237,1,1,129,1.237
"2002",14,"congruent",676,1,1,130,0.676
"2003",14,"incongruent",876,1,2,131,0.876
"2006",14,"incongruent",793,1,2,134,0.793
"2007",14,"congruent",811,1,1,135,0.811
"2009",14,"incongruent",1219,1,2,137,1.219
"2012",14,"incongruent",733,1,2,140,0.733
"2013",14,"incongruent",655,1,2,141,0.655
"2014",14,"congruent",607,1,1,142,0.607
"2016",14,"congruent",468,1,1,144,0.468
"2020",15,"incongruent",843,1,2,4,0.843
"2022",15,"incongruent",698,1,2,6,0.698
"2023",15,"incongruent",1027,1,2,7,1.027
"2024",15,"incongruent",1116,1,2,8,1.116
"2025",15,"congruent",944,1,1,9,0.944
"2026",15,"incongruent",1343,1,2,10,1.343
"2028",15,"congruent",944,1,1,12,0.944
"2029",15,"congruent",847,1,1,13,0.847
"2031",15,"incongruent",954,1,2,15,0.954
"2032",15,"congruent",913,1,1,16,0.913
"2033",15,"incongruent",896,1,2,17,0.896
"2034",15,"congruent",1237,1,1,18,1.237
"2035",15,"incongruent",1036,1,2,19,1.036
"2036",15,"congruent",846,1,1,20,0.846
"2037",15,"congruent",715,1,1,21,0.715
"2039",15,"congruent",836,1,1,23,0.836
"2040",15,"incongruent",800,1,2,24,0.8
"2041",15,"congruent",620,1,1,25,0.62
"2042",15,"congruent",714,1,1,26,0.714
"2043",15,"congruent",788,1,1,27,0.788
"2044",15,"congruent",999,1,1,28,0.999
"2045",15,"incongruent",759,1,2,29,0.759
"2048",15,"incongruent",860,1,2,32,0.86
"2049",15,"congruent",818,1,1,33,0.818
"2051",15,"congruent",746,1,1,35,0.746
"2052",15,"congruent",932,1,1,36,0.932
"2054",15,"incongruent",741,1,2,38,0.741
"2055",15,"congruent",703,1,1,39,0.703
"2056",15,"incongruent",816,1,2,40,0.816
"2057",15,"incongruent",748,1,2,41,0.748
"2058",15,"incongruent",718,1,2,42,0.718
"2059",15,"congruent",616,1,1,43,0.616
"2060",15,"incongruent",967,1,2,44,0.967
"2061",15,"incongruent",1991,1,2,45,1.991
"2063",15,"congruent",1536,1,1,47,1.536
"2067",15,"congruent",1573,1,1,51,1.573
"2068",15,"incongruent",1244,1,2,52,1.244
"2070",15,"incongruent",841,1,2,54,0.841
"2072",15,"incongruent",967,1,2,56,0.967
"2073",15,"incongruent",815,1,2,57,0.815
"2074",15,"congruent",1219,1,1,58,1.219
"2075",15,"incongruent",793,1,2,59,0.793
"2076",15,"congruent",741,1,1,60,0.741
"2078",15,"incongruent",883,1,2,62,0.883
"2079",15,"incongruent",865,1,2,63,0.865
"2080",15,"congruent",830,1,1,64,0.83
"2081",15,"incongruent",842,1,2,65,0.842
"2082",15,"incongruent",775,1,2,66,0.775
"2083",15,"incongruent",706,1,2,67,0.706
"2084",15,"congruent",691,1,1,68,0.691
"2085",15,"congruent",748,1,1,69,0.748
"2089",15,"incongruent",813,1,2,73,0.813
"2092",15,"congruent",735,1,1,76,0.735
"2093",15,"congruent",793,1,1,77,0.793
"2094",15,"congruent",748,1,1,78,0.748
"2095",15,"incongruent",727,1,2,79,0.727
"2097",15,"incongruent",843,1,2,81,0.843
"2099",15,"congruent",678,1,1,83,0.678
"2101",15,"congruent",716,1,1,85,0.716
"2102",15,"congruent",1237,1,1,86,1.237
"2103",15,"congruent",948,1,1,87,0.948
"2105",15,"incongruent",750,1,2,89,0.75
"2106",15,"incongruent",832,1,2,90,0.832
"2107",15,"congruent",621,1,1,91,0.621
"2109",15,"congruent",675,1,1,93,0.675
"2113",15,"congruent",1017,1,1,97,1.017
"2115",15,"incongruent",768,1,2,99,0.768
"2116",15,"incongruent",803,1,2,100,0.803
"2117",15,"congruent",614,1,1,101,0.614
"2118",15,"congruent",725,1,1,102,0.725
"2119",15,"incongruent",719,1,2,103,0.719
"2120",15,"incongruent",744,1,2,104,0.744
"2121",15,"incongruent",866,1,2,105,0.866
"2123",15,"congruent",738,1,1,107,0.738
"2125",15,"incongruent",841,1,2,109,0.841
"2126",15,"congruent",854,1,1,110,0.854
"2128",15,"congruent",735,1,1,112,0.735
"2131",15,"congruent",661,1,1,115,0.661
"2135",15,"incongruent",627,1,2,119,0.627
"2136",15,"incongruent",818,1,2,120,0.818
"2138",15,"incongruent",642,1,2,122,0.642
"2139",15,"congruent",586,1,1,123,0.586
"2143",15,"congruent",732,1,1,127,0.732
"2144",15,"congruent",886,1,1,128,0.886
"2145",15,"congruent",1075,1,1,129,1.075
"2146",15,"congruent",822,1,1,130,0.822
"2147",15,"incongruent",1282,1,2,131,1.282
"2150",15,"incongruent",1654,1,2,134,1.654
"2151",15,"congruent",945,1,1,135,0.945
"2153",15,"incongruent",999,1,2,137,0.999
"2156",15,"incongruent",1037,1,2,140,1.037
"2157",15,"incongruent",919,1,2,141,0.919
"2158",15,"congruent",837,1,1,142,0.837
"2160",15,"congruent",670,1,1,144,0.67
"2164",16,"incongruent",989,1,2,4,0.989
"2166",16,"incongruent",802,1,2,6,0.802
"2167",16,"incongruent",1013,1,2,7,1.013
"2168",16,"incongruent",735,1,2,8,0.735
"2169",16,"congruent",769,1,1,9,0.769
"2170",16,"incongruent",931,1,2,10,0.931
"2172",16,"congruent",908,1,1,12,0.908
"2173",16,"congruent",970,1,1,13,0.97
"2175",16,"incongruent",968,1,2,15,0.968
"2176",16,"congruent",920,1,1,16,0.92
"2177",16,"incongruent",815,1,2,17,0.815
"2178",16,"congruent",891,1,1,18,0.891
"2179",16,"incongruent",977,1,2,19,0.977
"2180",16,"congruent",881,1,1,20,0.881
"2181",16,"congruent",807,1,1,21,0.807
"2183",16,"congruent",807,1,1,23,0.807
"2184",16,"incongruent",723,1,2,24,0.723
"2185",16,"congruent",781,1,1,25,0.781
"2186",16,"congruent",720,1,1,26,0.72
"2187",16,"congruent",689,1,1,27,0.689
"2188",16,"congruent",834,1,1,28,0.834
"2189",16,"incongruent",807,1,2,29,0.807
"2192",16,"incongruent",786,1,2,32,0.786
"2193",16,"congruent",774,1,1,33,0.774
"2195",16,"congruent",817,1,1,35,0.817
"2196",16,"congruent",733,1,1,36,0.733
"2198",16,"incongruent",857,1,2,38,0.857
"2199",16,"congruent",742,1,1,39,0.742
"2200",16,"incongruent",729,1,2,40,0.729
"2201",16,"incongruent",738,1,2,41,0.738
"2202",16,"incongruent",876,1,2,42,0.876
"2203",16,"congruent",810,1,1,43,0.81
"2204",16,"incongruent",790,1,2,44,0.79
"2205",16,"incongruent",921,1,2,45,0.921
"2207",16,"congruent",741,1,1,47,0.741
"2208",16,"incongruent",967,1,2,48,0.967
"2211",16,"congruent",815,1,1,51,0.815
"2212",16,"incongruent",579,1,2,52,0.579
"2214",16,"incongruent",667,1,2,54,0.667
"2216",16,"incongruent",743,1,2,56,0.743
"2217",16,"incongruent",873,1,2,57,0.873
"2218",16,"congruent",1086,1,1,58,1.086
"2219",16,"incongruent",769,1,2,59,0.769
"2220",16,"congruent",772,1,1,60,0.772
"2222",16,"incongruent",849,1,2,62,0.849
"2223",16,"incongruent",1022,1,2,63,1.022
"2224",16,"congruent",903,1,1,64,0.903
"2225",16,"incongruent",789,1,2,65,0.789
"2226",16,"incongruent",896,1,2,66,0.896
"2227",16,"incongruent",678,1,2,67,0.678
"2228",16,"congruent",663,1,1,68,0.663
"2229",16,"congruent",927,1,1,69,0.927
"2233",16,"incongruent",699,1,2,73,0.699
"2236",16,"congruent",684,1,1,76,0.684
"2237",16,"congruent",988,1,1,77,0.988
"2238",16,"congruent",773,1,1,78,0.773
"2239",16,"incongruent",704,1,2,79,0.704
"2241",16,"incongruent",668,1,2,81,0.668
"2243",16,"congruent",684,1,1,83,0.684
"2245",16,"congruent",607,1,1,85,0.607
"2246",16,"congruent",718,1,1,86,0.718
"2247",16,"congruent",752,1,1,87,0.752
"2249",16,"incongruent",880,1,2,89,0.88
"2250",16,"incongruent",686,1,2,90,0.686
"2251",16,"congruent",725,1,1,91,0.725
"2253",16,"congruent",761,1,1,93,0.761
"2257",16,"congruent",651,1,1,97,0.651
"2259",16,"incongruent",611,1,2,99,0.611
"2260",16,"incongruent",858,1,2,100,0.858
"2261",16,"congruent",535,1,1,101,0.535
"2262",16,"congruent",540,1,1,102,0.54
"2263",16,"incongruent",512,1,2,103,0.512
"2264",16,"incongruent",533,1,2,104,0.533
"2265",16,"incongruent",514,1,2,105,0.514
"2267",16,"congruent",578,1,1,107,0.578
"2269",16,"incongruent",621,1,2,109,0.621
"2270",16,"congruent",652,1,1,110,0.652
"2272",16,"congruent",667,1,1,112,0.667
"2275",16,"congruent",1274,1,1,115,1.274
"2279",16,"incongruent",528,1,2,119,0.528
"2280",16,"incongruent",677,1,2,120,0.677
"2282",16,"incongruent",905,1,2,122,0.905
"2283",16,"congruent",648,1,1,123,0.648
"2284",16,"incongruent",600,1,2,124,0.6
"2287",16,"congruent",577,1,1,127,0.577
"2288",16,"congruent",767,1,1,128,0.767
"2289",16,"congruent",537,1,1,129,0.537
"2290",16,"congruent",734,1,1,130,0.734
"2291",16,"incongruent",744,1,2,131,0.744
"2294",16,"incongruent",614,1,2,134,0.614
"2295",16,"congruent",884,1,1,135,0.884
"2297",16,"incongruent",465,1,2,137,0.465
"2300",16,"incongruent",564,1,2,140,0.564
"2301",16,"incongruent",514,1,2,141,0.514
"2302",16,"congruent",598,1,1,142,0.598
"2304",16,"congruent",735,1,1,144,0.735
"2308",17,"incongruent",898,1,2,4,0.898
"2310",17,"incongruent",657,1,2,6,0.657
"2311",17,"incongruent",985,1,2,7,0.985
"2312",17,"incongruent",626,1,2,8,0.626
"2313",17,"congruent",865,1,1,9,0.865
"2314",17,"incongruent",774,1,2,10,0.774
"2316",17,"congruent",789,1,1,12,0.789
"2317",17,"congruent",696,1,1,13,0.696
"2319",17,"incongruent",758,1,2,15,0.758
"2320",17,"congruent",768,1,1,16,0.768
"2321",17,"incongruent",811,1,2,17,0.811
"2322",17,"congruent",791,1,1,18,0.791
"2323",17,"incongruent",1355,1,2,19,1.355
"2324",17,"congruent",748,1,1,20,0.748
"2325",17,"congruent",719,1,1,21,0.719
"2327",17,"congruent",732,1,1,23,0.732
"2328",17,"incongruent",798,1,2,24,0.798
"2329",17,"congruent",617,1,1,25,0.617
"2330",17,"congruent",632,1,1,26,0.632
"2331",17,"congruent",488,1,1,27,0.488
"2332",17,"congruent",731,1,1,28,0.731
"2333",17,"incongruent",565,1,2,29,0.565
"2336",17,"incongruent",633,1,2,32,0.633
"2337",17,"congruent",792,1,1,33,0.792
"2339",17,"congruent",662,1,1,35,0.662
"2340",17,"congruent",814,1,1,36,0.814
"2342",17,"incongruent",669,1,2,38,0.669
"2343",17,"congruent",757,1,1,39,0.757
"2344",17,"incongruent",776,1,2,40,0.776
"2345",17,"incongruent",874,1,2,41,0.874
"2346",17,"incongruent",840,1,2,42,0.84
"2347",17,"congruent",621,1,1,43,0.621
"2348",17,"incongruent",860,1,2,44,0.86
"2349",17,"incongruent",649,1,2,45,0.649
"2351",17,"congruent",625,1,1,47,0.625
"2352",17,"incongruent",744,1,2,48,0.744
"2355",17,"congruent",744,1,1,51,0.744
"2356",17,"incongruent",690,1,2,52,0.69
"2358",17,"incongruent",589,1,2,54,0.589
"2360",17,"incongruent",726,1,2,56,0.726
"2361",17,"incongruent",743,1,2,57,0.743
"2362",17,"congruent",673,1,1,58,0.673
"2364",17,"congruent",1193,1,1,60,1.193
"2366",17,"incongruent",1098,1,2,62,1.098
"2367",17,"incongruent",805,1,2,63,0.805
"2368",17,"congruent",888,1,1,64,0.888
"2369",17,"incongruent",894,1,2,65,0.894
"2370",17,"incongruent",676,1,2,66,0.676
"2371",17,"incongruent",669,1,2,67,0.669
"2372",17,"congruent",741,1,1,68,0.741
"2373",17,"congruent",727,1,1,69,0.727
"2377",17,"incongruent",787,1,2,73,0.787
"2380",17,"congruent",646,1,1,76,0.646
"2381",17,"congruent",838,1,1,77,0.838
"2382",17,"congruent",738,1,1,78,0.738
"2383",17,"incongruent",564,1,2,79,0.564
"2385",17,"incongruent",823,1,2,81,0.823
"2387",17,"congruent",641,1,1,83,0.641
"2389",17,"congruent",936,1,1,85,0.936
"2390",17,"congruent",744,1,1,86,0.744
"2391",17,"congruent",770,1,1,87,0.77
"2393",17,"incongruent",804,1,2,89,0.804
"2394",17,"incongruent",520,1,2,90,0.52
"2395",17,"congruent",517,1,1,91,0.517
"2397",17,"congruent",562,1,1,93,0.562
"2401",17,"congruent",779,1,1,97,0.779
"2403",17,"incongruent",781,1,2,99,0.781
"2404",17,"incongruent",696,1,2,100,0.696
"2405",17,"congruent",546,1,1,101,0.546
"2406",17,"congruent",735,1,1,102,0.735
"2408",17,"incongruent",1506,1,2,104,1.506
"2409",17,"incongruent",744,1,2,105,0.744
"2411",17,"congruent",682,1,1,107,0.682
"2413",17,"incongruent",643,1,2,109,0.643
"2414",17,"congruent",754,1,1,110,0.754
"2416",17,"congruent",803,1,1,112,0.803
"2419",17,"congruent",726,1,1,115,0.726
"2423",17,"incongruent",810,1,2,119,0.81
"2424",17,"incongruent",966,1,2,120,0.966
"2426",17,"incongruent",606,1,2,122,0.606
"2427",17,"congruent",533,1,1,123,0.533
"2428",17,"incongruent",490,1,2,124,0.49
"2431",17,"congruent",472,1,1,127,0.472
"2432",17,"congruent",804,1,1,128,0.804
"2433",17,"congruent",1159,1,1,129,1.159
"2434",17,"congruent",716,1,1,130,0.716
"2435",17,"incongruent",1046,1,2,131,1.046
"2438",17,"incongruent",600,1,2,134,0.6
"2439",17,"congruent",766,1,1,135,0.766
"2441",17,"incongruent",935,1,2,137,0.935
"2444",17,"incongruent",861,1,2,140,0.861
"2445",17,"incongruent",682,1,2,141,0.682
"2446",17,"congruent",795,1,1,142,0.795
"2448",17,"congruent",526,1,1,144,0.526
"2452",18,"incongruent",752,1,2,4,0.752
"2454",18,"incongruent",759,1,2,6,0.759
"2455",18,"incongruent",1137,1,2,7,1.137
"2456",18,"incongruent",806,1,2,8,0.806
"2457",18,"congruent",1217,1,1,9,1.217
"2458",18,"incongruent",1728,1,2,10,1.728
"2460",18,"congruent",1023,1,1,12,1.023
"2461",18,"congruent",1057,1,1,13,1.057
"2463",18,"incongruent",855,1,2,15,0.855
"2464",18,"congruent",884,1,1,16,0.884
"2465",18,"incongruent",946,1,2,17,0.946
"2466",18,"congruent",809,1,1,18,0.809
"2467",18,"incongruent",1357,1,2,19,1.357
"2468",18,"congruent",623,1,1,20,0.623
"2469",18,"congruent",686,1,1,21,0.686
"2471",18,"congruent",588,1,1,23,0.588
"2472",18,"incongruent",634,1,2,24,0.634
"2473",18,"congruent",617,1,1,25,0.617
"2474",18,"congruent",648,1,1,26,0.648
"2475",18,"congruent",543,1,1,27,0.543
"2476",18,"congruent",684,1,1,28,0.684
"2477",18,"incongruent",821,1,2,29,0.821
"2480",18,"incongruent",942,1,2,32,0.942
"2481",18,"congruent",677,1,1,33,0.677
"2483",18,"congruent",554,1,1,35,0.554
"2484",18,"congruent",719,1,1,36,0.719
"2486",18,"incongruent",817,1,2,38,0.817
"2487",18,"congruent",573,1,1,39,0.573
"2488",18,"incongruent",490,1,2,40,0.49
"2489",18,"incongruent",862,1,2,41,0.862
"2490",18,"incongruent",787,1,2,42,0.787
"2491",18,"congruent",518,1,1,43,0.518
"2492",18,"incongruent",915,1,2,44,0.915
"2493",18,"incongruent",1505,1,2,45,1.505
"2495",18,"congruent",744,1,1,47,0.744
"2496",18,"incongruent",730,1,2,48,0.73
"2499",18,"congruent",1232,1,1,51,1.232
"2500",18,"incongruent",703,1,2,52,0.703
"2502",18,"incongruent",1393,1,2,54,1.393
"2504",18,"incongruent",499,1,2,56,0.499
"2505",18,"incongruent",720,1,2,57,0.72
"2506",18,"congruent",770,1,1,58,0.77
"2507",18,"incongruent",684,1,2,59,0.684
"2508",18,"congruent",901,1,1,60,0.901
"2511",18,"incongruent",1211,1,2,63,1.211
"2513",18,"incongruent",700,1,2,65,0.7
"2514",18,"incongruent",709,1,2,66,0.709
"2515",18,"incongruent",734,1,2,67,0.734
"2516",18,"congruent",584,1,1,68,0.584
"2517",18,"congruent",542,1,1,69,0.542
"2521",18,"incongruent",744,1,2,73,0.744
"2524",18,"congruent",898,1,1,76,0.898
"2525",18,"congruent",1336,1,1,77,1.336
"2526",18,"congruent",801,1,1,78,0.801
"2527",18,"incongruent",572,1,2,79,0.572
"2529",18,"incongruent",1023,1,2,81,1.023
"2531",18,"congruent",755,1,1,83,0.755
"2533",18,"congruent",663,1,1,85,0.663
"2534",18,"congruent",631,1,1,86,0.631
"2535",18,"congruent",1110,1,1,87,1.11
"2538",18,"incongruent",682,1,2,90,0.682
"2539",18,"congruent",538,1,1,91,0.538
"2541",18,"congruent",598,1,1,93,0.598
"2545",18,"congruent",1266,1,1,97,1.266
"2547",18,"incongruent",717,1,2,99,0.717
"2548",18,"incongruent",1479,1,2,100,1.479
"2549",18,"congruent",564,1,1,101,0.564
"2550",18,"congruent",617,1,1,102,0.617
"2553",18,"incongruent",1257,1,2,105,1.257
"2555",18,"congruent",730,1,1,107,0.73
"2558",18,"congruent",1022,1,1,110,1.022
"2560",18,"congruent",502,1,1,112,0.502
"2563",18,"congruent",940,1,1,115,0.94
"2567",18,"incongruent",866,1,2,119,0.866
"2568",18,"incongruent",792,1,2,120,0.792
"2570",18,"incongruent",672,1,2,122,0.672
"2571",18,"congruent",552,1,1,123,0.552
"2572",18,"incongruent",646,1,2,124,0.646
"2575",18,"congruent",497,1,1,127,0.497
"2576",18,"congruent",605,1,1,128,0.605
"2577",18,"congruent",604,1,1,129,0.604
"2578",18,"congruent",650,1,1,130,0.65
"2579",18,"incongruent",954,1,2,131,0.954
"2582",18,"incongruent",631,1,2,134,0.631
"2583",18,"congruent",646,1,1,135,0.646
"2585",18,"incongruent",762,1,2,137,0.762
"2588",18,"incongruent",738,1,2,140,0.738
"2590",18,"congruent",1513,1,1,142,1.513
"2592",18,"congruent",647,1,1,144,0.647
"2596",19,"incongruent",878,1,2,4,0.878
"2598",19,"incongruent",692,1,2,6,0.692
"2599",19,"incongruent",821,1,2,7,0.821
"2600",19,"incongruent",881,1,2,8,0.881
"2601",19,"congruent",758,1,1,9,0.758
"2602",19,"incongruent",729,1,2,10,0.729
"2605",19,"congruent",747,1,1,13,0.747
"2607",19,"incongruent",533,1,2,15,0.533
"2608",19,"congruent",465,1,1,16,0.465
"2609",19,"incongruent",732,1,2,17,0.732
"2610",19,"congruent",470,1,1,18,0.47
"2611",19,"incongruent",769,1,2,19,0.769
"2612",19,"congruent",540,1,1,20,0.54
"2613",19,"congruent",489,1,1,21,0.489
"2615",19,"congruent",554,1,1,23,0.554
"2616",19,"incongruent",599,1,2,24,0.599
"2617",19,"congruent",501,1,1,25,0.501
"2618",19,"congruent",649,1,1,26,0.649
"2619",19,"congruent",521,1,1,27,0.521
"2620",19,"congruent",389,1,1,28,0.389
"2621",19,"incongruent",582,1,2,29,0.582
"2624",19,"incongruent",449,1,2,32,0.449
"2625",19,"congruent",540,1,1,33,0.54
"2627",19,"congruent",486,1,1,35,0.486
"2628",19,"congruent",506,1,1,36,0.506
"2630",19,"incongruent",484,1,2,38,0.484
"2631",19,"congruent",431,1,1,39,0.431
"2632",19,"incongruent",697,1,2,40,0.697
"2633",19,"incongruent",474,1,2,41,0.474
"2635",19,"congruent",1157,1,1,43,1.157
"2636",19,"incongruent",882,1,2,44,0.882
"2637",19,"incongruent",1568,1,2,45,1.568
"2639",19,"congruent",619,1,1,47,0.619
"2640",19,"incongruent",498,1,2,48,0.498
"2643",19,"congruent",479,1,1,51,0.479
"2646",19,"incongruent",1019,1,2,54,1.019
"2648",19,"incongruent",545,1,2,56,0.545
"2649",19,"incongruent",574,1,2,57,0.574
"2650",19,"congruent",539,1,1,58,0.539
"2652",19,"congruent",1456,1,1,60,1.456
"2654",19,"incongruent",783,1,2,62,0.783
"2655",19,"incongruent",715,1,2,63,0.715
"2656",19,"congruent",604,1,1,64,0.604
"2659",19,"incongruent",531,1,2,67,0.531
"2660",19,"congruent",416,1,1,68,0.416
"2661",19,"congruent",457,1,1,69,0.457
"2665",19,"incongruent",778,1,2,73,0.778
"2668",19,"congruent",468,1,1,76,0.468
"2669",19,"congruent",503,1,1,77,0.503
"2670",19,"congruent",515,1,1,78,0.515
"2675",19,"congruent",473,1,1,83,0.473
"2677",19,"congruent",677,1,1,85,0.677
"2678",19,"congruent",1701,1,1,86,1.701
"2679",19,"congruent",631,1,1,87,0.631
"2681",19,"incongruent",641,1,2,89,0.641
"2682",19,"incongruent",833,1,2,90,0.833
"2683",19,"congruent",557,1,1,91,0.557
"2685",19,"congruent",545,1,1,93,0.545
"2689",19,"congruent",542,1,1,97,0.542
"2691",19,"incongruent",622,1,2,99,0.622
"2692",19,"incongruent",589,1,2,100,0.589
"2693",19,"congruent",627,1,1,101,0.627
"2694",19,"congruent",530,1,1,102,0.53
"2695",19,"incongruent",711,1,2,103,0.711
"2696",19,"incongruent",760,1,2,104,0.76
"2697",19,"incongruent",530,1,2,105,0.53
"2699",19,"congruent",811,1,1,107,0.811
"2701",19,"incongruent",966,1,2,109,0.966
"2702",19,"congruent",1046,1,1,110,1.046
"2704",19,"congruent",476,1,1,112,0.476
"2707",19,"congruent",545,1,1,115,0.545
"2712",19,"incongruent",1221,1,2,120,1.221
"2715",19,"congruent",831,1,1,123,0.831
"2716",19,"incongruent",428,1,2,124,0.428
"2719",19,"congruent",605,1,1,127,0.605
"2720",19,"congruent",516,1,1,128,0.516
"2721",19,"congruent",432,1,1,129,0.432
"2722",19,"congruent",482,1,1,130,0.482
"2723",19,"incongruent",604,1,2,131,0.604
"2726",19,"incongruent",654,1,2,134,0.654
"2727",19,"congruent",806,1,1,135,0.806
"2729",19,"incongruent",597,1,2,137,0.597
"2732",19,"incongruent",773,1,2,140,0.773
"2733",19,"incongruent",511,1,2,141,0.511
"2734",19,"congruent",572,1,1,142,0.572
"2736",19,"congruent",474,1,1,144,0.474
"2740",20,"incongruent",820,1,2,4,0.82
"2742",20,"incongruent",617,1,2,6,0.617
"2743",20,"incongruent",743,1,2,7,0.743
"2744",20,"incongruent",593,1,2,8,0.593
"2745",20,"congruent",664,1,1,9,0.664
"2746",20,"incongruent",632,1,2,10,0.632
"2748",20,"congruent",687,1,1,12,0.687
"2749",20,"congruent",671,1,1,13,0.671
"2751",20,"incongruent",861,1,2,15,0.861
"2752",20,"congruent",547,1,1,16,0.547
"2753",20,"incongruent",760,1,2,17,0.76
"2754",20,"congruent",618,1,1,18,0.618
"2755",20,"incongruent",705,1,2,19,0.705
"2756",20,"congruent",634,1,1,20,0.634
"2757",20,"congruent",617,1,1,21,0.617
"2759",20,"congruent",559,1,1,23,0.559
"2760",20,"incongruent",612,1,2,24,0.612
"2761",20,"congruent",555,1,1,25,0.555
"2762",20,"congruent",560,1,1,26,0.56
"2763",20,"congruent",558,1,1,27,0.558
"2764",20,"congruent",539,1,1,28,0.539
"2768",20,"incongruent",657,1,2,32,0.657
"2769",20,"congruent",657,1,1,33,0.657
"2771",20,"congruent",595,1,1,35,0.595
"2772",20,"congruent",681,1,1,36,0.681
"2774",20,"incongruent",958,1,2,38,0.958
"2775",20,"congruent",621,1,1,39,0.621
"2776",20,"incongruent",724,1,2,40,0.724
"2778",20,"incongruent",745,1,2,42,0.745
"2779",20,"congruent",603,1,1,43,0.603
"2780",20,"incongruent",770,1,2,44,0.77
"2781",20,"incongruent",597,1,2,45,0.597
"2783",20,"congruent",667,1,1,47,0.667
"2784",20,"incongruent",1203,1,2,48,1.203
"2787",20,"congruent",1161,1,1,51,1.161
"2788",20,"incongruent",725,1,2,52,0.725
"2790",20,"incongruent",552,1,2,54,0.552
"2792",20,"incongruent",725,1,2,56,0.725
"2793",20,"incongruent",718,1,2,57,0.718
"2794",20,"congruent",704,1,1,58,0.704
"2795",20,"incongruent",961,1,2,59,0.961
"2796",20,"congruent",761,1,1,60,0.761
"2798",20,"incongruent",805,1,2,62,0.805
"2799",20,"incongruent",609,1,2,63,0.609
"2800",20,"congruent",711,1,1,64,0.711
"2801",20,"incongruent",616,1,2,65,0.616
"2802",20,"incongruent",895,1,2,66,0.895
"2803",20,"incongruent",685,1,2,67,0.685
"2804",20,"congruent",670,1,1,68,0.67
"2805",20,"congruent",646,1,1,69,0.646
"2809",20,"incongruent",743,1,2,73,0.743
"2812",20,"congruent",550,1,1,76,0.55
"2813",20,"congruent",811,1,1,77,0.811
"2814",20,"congruent",735,1,1,78,0.735
"2815",20,"incongruent",641,1,2,79,0.641
"2817",20,"incongruent",704,1,2,81,0.704
"2819",20,"congruent",634,1,1,83,0.634
"2821",20,"congruent",623,1,1,85,0.623
"2822",20,"congruent",646,1,1,86,0.646
"2823",20,"congruent",621,1,1,87,0.621
"2825",20,"incongruent",595,1,2,89,0.595
"2826",20,"incongruent",522,1,2,90,0.522
"2827",20,"congruent",566,1,1,91,0.566
"2829",20,"congruent",568,1,1,93,0.568
"2833",20,"congruent",616,1,1,97,0.616
"2835",20,"incongruent",612,1,2,99,0.612
"2836",20,"incongruent",587,1,2,100,0.587
"2837",20,"congruent",617,1,1,101,0.617
"2838",20,"congruent",584,1,1,102,0.584
"2839",20,"incongruent",590,1,2,103,0.59
"2840",20,"incongruent",644,1,2,104,0.644
"2841",20,"incongruent",644,1,2,105,0.644
"2843",20,"congruent",563,1,1,107,0.563
"2845",20,"incongruent",887,1,2,109,0.887
"2846",20,"congruent",653,1,1,110,0.653
"2848",20,"congruent",572,1,1,112,0.572
"2851",20,"congruent",637,1,1,115,0.637
"2855",20,"incongruent",860,1,2,119,0.86
"2856",20,"incongruent",786,1,2,120,0.786
"2858",20,"incongruent",659,1,2,122,0.659
"2859",20,"congruent",603,1,1,123,0.603
"2860",20,"incongruent",569,1,2,124,0.569
"2863",20,"congruent",603,1,1,127,0.603
"2864",20,"congruent",601,1,1,128,0.601
"2865",20,"congruent",615,1,1,129,0.615
"2866",20,"congruent",598,1,1,130,0.598
"2867",20,"incongruent",1044,1,2,131,1.044
"2870",20,"incongruent",741,1,2,134,0.741
"2871",20,"congruent",663,1,1,135,0.663
"2873",20,"incongruent",638,1,2,137,0.638
"2876",20,"incongruent",650,1,2,140,0.65
"2877",20,"incongruent",585,1,2,141,0.585
"2878",20,"congruent",687,1,1,142,0.687
"2880",20,"congruent",623,1,1,144,0.623
"2884",21,"incongruent",1128,1,2,4,1.128
"2886",21,"incongruent",678,1,2,6,0.678
"2887",21,"incongruent",1054,1,2,7,1.054
"2888",21,"incongruent",960,1,2,8,0.96
"2889",21,"congruent",696,1,1,9,0.696
"2890",21,"incongruent",977,1,2,10,0.977
"2892",21,"congruent",673,1,1,12,0.673
"2893",21,"congruent",624,1,1,13,0.624
"2895",21,"incongruent",650,1,2,15,0.65
"2896",21,"congruent",698,1,1,16,0.698
"2897",21,"incongruent",914,1,2,17,0.914
"2898",21,"congruent",689,1,1,18,0.689
"2899",21,"incongruent",690,1,2,19,0.69
"2900",21,"congruent",634,1,1,20,0.634
"2901",21,"congruent",626,1,1,21,0.626
"2903",21,"congruent",619,1,1,23,0.619
"2904",21,"incongruent",786,1,2,24,0.786
"2905",21,"congruent",661,1,1,25,0.661
"2906",21,"congruent",669,1,1,26,0.669
"2907",21,"congruent",741,1,1,27,0.741
"2908",21,"congruent",751,1,1,28,0.751
"2909",21,"incongruent",746,1,2,29,0.746
"2912",21,"incongruent",718,1,2,32,0.718
"2913",21,"congruent",703,1,1,33,0.703
"2915",21,"congruent",689,1,1,35,0.689
"2916",21,"congruent",634,1,1,36,0.634
"2918",21,"incongruent",649,1,2,38,0.649
"2919",21,"congruent",665,1,1,39,0.665
"2920",21,"incongruent",697,1,2,40,0.697
"2922",21,"incongruent",866,1,2,42,0.866
"2923",21,"congruent",600,1,1,43,0.6
"2924",21,"incongruent",869,1,2,44,0.869
"2925",21,"incongruent",659,1,2,45,0.659
"2927",21,"congruent",747,1,1,47,0.747
"2928",21,"incongruent",989,1,2,48,0.989
"2931",21,"congruent",768,1,1,51,0.768
"2932",21,"incongruent",675,1,2,52,0.675
"2934",21,"incongruent",662,1,2,54,0.662
"2936",21,"incongruent",616,1,2,56,0.616
"2938",21,"congruent",722,1,1,58,0.722
"2939",21,"incongruent",668,1,2,59,0.668
"2940",21,"congruent",772,1,1,60,0.772
"2944",21,"congruent",1671,1,1,64,1.671
"2945",21,"incongruent",776,1,2,65,0.776
"2946",21,"incongruent",795,1,2,66,0.795
"2947",21,"incongruent",654,1,2,67,0.654
"2948",21,"congruent",734,1,1,68,0.734
"2949",21,"congruent",760,1,1,69,0.76
"2953",21,"incongruent",942,1,2,73,0.942
"2956",21,"congruent",1545,1,1,76,1.545
"2957",21,"congruent",616,1,1,77,0.616
"2958",21,"congruent",758,1,1,78,0.758
"2959",21,"incongruent",729,1,2,79,0.729
"2961",21,"incongruent",729,1,2,81,0.729
"2963",21,"congruent",709,1,1,83,0.709
"2965",21,"congruent",698,1,1,85,0.698
"2966",21,"congruent",1459,1,1,86,1.459
"2967",21,"congruent",688,1,1,87,0.688
"2969",21,"incongruent",1443,1,2,89,1.443
"2970",21,"incongruent",687,1,2,90,0.687
"2971",21,"congruent",775,1,1,91,0.775
"2973",21,"congruent",734,1,1,93,0.734
"2977",21,"congruent",783,1,1,97,0.783
"2979",21,"incongruent",740,1,2,99,0.74
"2980",21,"incongruent",1094,1,2,100,1.094
"2981",21,"congruent",704,1,1,101,0.704
"2982",21,"congruent",738,1,1,102,0.738
"2983",21,"incongruent",723,1,2,103,0.723
"2984",21,"incongruent",901,1,2,104,0.901
"2985",21,"incongruent",579,1,2,105,0.579
"2987",21,"congruent",719,1,1,107,0.719
"2989",21,"incongruent",824,1,2,109,0.824
"2990",21,"congruent",1084,1,1,110,1.084
"2992",21,"congruent",649,1,1,112,0.649
"2995",21,"congruent",764,1,1,115,0.764
"2999",21,"incongruent",743,1,2,119,0.743
"3000",21,"incongruent",1017,1,2,120,1.017
"3002",21,"incongruent",922,1,2,122,0.922
"3003",21,"congruent",576,1,1,123,0.576
"3004",21,"incongruent",806,1,2,124,0.806
"3007",21,"congruent",710,1,1,127,0.71
"3008",21,"congruent",911,1,1,128,0.911
"3009",21,"congruent",934,1,1,129,0.934
"3010",21,"congruent",917,1,1,130,0.917
"3011",21,"incongruent",1276,1,2,131,1.276
"3014",21,"incongruent",834,1,2,134,0.834
"3015",21,"congruent",663,1,1,135,0.663
"3017",21,"incongruent",632,1,2,137,0.632
"3020",21,"incongruent",720,1,2,140,0.72
"3021",21,"incongruent",601,1,2,141,0.601
"3022",21,"congruent",656,1,1,142,0.656
"3024",21,"congruent",550,1,1,144,0.55
"3028",22,"incongruent",1055,1,2,4,1.055
"3030",22,"incongruent",711,1,2,6,0.711
"3031",22,"incongruent",881,1,2,7,0.881
"3032",22,"incongruent",1486,1,2,8,1.486
"3033",22,"congruent",795,1,1,9,0.795
"3034",22,"incongruent",519,1,2,10,0.519
"3036",22,"congruent",665,1,1,12,0.665
"3037",22,"congruent",833,1,1,13,0.833
"3039",22,"incongruent",1051,1,2,15,1.051
"3040",22,"congruent",653,1,1,16,0.653
"3041",22,"incongruent",629,1,2,17,0.629
"3042",22,"congruent",612,1,1,18,0.612
"3043",22,"incongruent",643,1,2,19,0.643
"3044",22,"congruent",491,1,1,20,0.491
"3045",22,"congruent",542,1,1,21,0.542
"3047",22,"congruent",442,1,1,23,0.442
"3048",22,"incongruent",765,1,2,24,0.765
"3049",22,"congruent",503,1,1,25,0.503
"3050",22,"congruent",475,1,1,26,0.475
"3051",22,"congruent",527,1,1,27,0.527
"3052",22,"congruent",555,1,1,28,0.555
"3053",22,"incongruent",512,1,2,29,0.512
"3056",22,"incongruent",602,1,2,32,0.602
"3057",22,"congruent",576,1,1,33,0.576
"3059",22,"congruent",491,1,1,35,0.491
"3060",22,"congruent",543,1,1,36,0.543
"3062",22,"incongruent",484,1,2,38,0.484
"3063",22,"congruent",472,1,1,39,0.472
"3064",22,"incongruent",627,1,2,40,0.627
"3065",22,"incongruent",690,1,2,41,0.69
"3066",22,"incongruent",579,1,2,42,0.579
"3067",22,"congruent",537,1,1,43,0.537
"3068",22,"incongruent",926,1,2,44,0.926
"3069",22,"incongruent",1141,1,2,45,1.141
"3071",22,"congruent",559,1,1,47,0.559
"3072",22,"incongruent",685,1,2,48,0.685
"3075",22,"congruent",649,1,1,51,0.649
"3076",22,"incongruent",560,1,2,52,0.56
"3078",22,"incongruent",477,1,2,54,0.477
"3080",22,"incongruent",966,1,2,56,0.966
"3081",22,"incongruent",614,1,2,57,0.614
"3082",22,"congruent",597,1,1,58,0.597
"3083",22,"incongruent",619,1,2,59,0.619
"3084",22,"congruent",658,1,1,60,0.658
"3086",22,"incongruent",519,1,2,62,0.519
"3087",22,"incongruent",659,1,2,63,0.659
"3088",22,"congruent",699,1,1,64,0.699
"3089",22,"incongruent",828,1,2,65,0.828
"3090",22,"incongruent",624,1,2,66,0.624
"3091",22,"incongruent",567,1,2,67,0.567
"3092",22,"congruent",597,1,1,68,0.597
"3093",22,"congruent",547,1,1,69,0.547
"3097",22,"incongruent",571,1,2,73,0.571
"3100",22,"congruent",571,1,1,76,0.571
"3101",22,"congruent",577,1,1,77,0.577
"3102",22,"congruent",591,1,1,78,0.591
"3103",22,"incongruent",509,1,2,79,0.509
"3105",22,"incongruent",664,1,2,81,0.664
"3107",22,"congruent",580,1,1,83,0.58
"3109",22,"congruent",493,1,1,85,0.493
"3110",22,"congruent",521,1,1,86,0.521
"3111",22,"congruent",653,1,1,87,0.653
"3113",22,"incongruent",578,1,2,89,0.578
"3114",22,"incongruent",441,1,2,90,0.441
"3115",22,"congruent",395,1,1,91,0.395
"3117",22,"congruent",472,1,1,93,0.472
"3121",22,"congruent",705,1,1,97,0.705
"3123",22,"incongruent",542,1,2,99,0.542
"3124",22,"incongruent",575,1,2,100,0.575
"3125",22,"congruent",440,1,1,101,0.44
"3126",22,"congruent",467,1,1,102,0.467
"3128",22,"incongruent",891,1,2,104,0.891
"3129",22,"incongruent",1529,1,2,105,1.529
"3131",22,"congruent",484,1,1,107,0.484
"3133",22,"incongruent",524,1,2,109,0.524
"3134",22,"congruent",592,1,1,110,0.592
"3136",22,"congruent",486,1,1,112,0.486
"3139",22,"congruent",517,1,1,115,0.517
"3143",22,"incongruent",514,1,2,119,0.514
"3144",22,"incongruent",575,1,2,120,0.575
"3146",22,"incongruent",690,1,2,122,0.69
"3147",22,"congruent",499,1,1,123,0.499
"3148",22,"incongruent",503,1,2,124,0.503
"3151",22,"congruent",466,1,1,127,0.466
"3152",22,"congruent",478,1,1,128,0.478
"3153",22,"congruent",617,1,1,129,0.617
"3154",22,"congruent",488,1,1,130,0.488
"3155",22,"incongruent",699,1,2,131,0.699
"3158",22,"incongruent",552,1,2,134,0.552
"3159",22,"congruent",534,1,1,135,0.534
"3161",22,"incongruent",608,1,2,137,0.608
"3164",22,"incongruent",464,1,2,140,0.464
"3165",22,"incongruent",547,1,2,141,0.547
"3166",22,"congruent",528,1,1,142,0.528
"3168",22,"congruent",464,1,1,144,0.464
"3172",23,"incongruent",1266,1,2,4,1.266
"3174",23,"incongruent",608,1,2,6,0.608
"3175",23,"incongruent",910,1,2,7,0.91
"3176",23,"incongruent",669,1,2,8,0.669
"3177",23,"congruent",613,1,1,9,0.613
"3178",23,"incongruent",1364,1,2,10,1.364
"3180",23,"congruent",794,1,1,12,0.794
"3181",23,"congruent",798,1,1,13,0.798
"3183",23,"incongruent",486,1,2,15,0.486
"3184",23,"congruent",545,1,1,16,0.545
"3185",23,"incongruent",870,1,2,17,0.87
"3186",23,"congruent",563,1,1,18,0.563
"3187",23,"incongruent",713,1,2,19,0.713
"3188",23,"congruent",594,1,1,20,0.594
"3189",23,"congruent",584,1,1,21,0.584
"3191",23,"congruent",611,1,1,23,0.611
"3192",23,"incongruent",882,1,2,24,0.882
"3193",23,"congruent",615,1,1,25,0.615
"3194",23,"congruent",651,1,1,26,0.651
"3195",23,"congruent",518,1,1,27,0.518
"3196",23,"congruent",954,1,1,28,0.954
"3197",23,"incongruent",522,1,2,29,0.522
"3200",23,"incongruent",652,1,2,32,0.652
"3201",23,"congruent",788,1,1,33,0.788
"3203",23,"congruent",710,1,1,35,0.71
"3204",23,"congruent",768,1,1,36,0.768
"3206",23,"incongruent",568,1,2,38,0.568
"3207",23,"congruent",590,1,1,39,0.59
"3208",23,"incongruent",780,1,2,40,0.78
"3209",23,"incongruent",830,1,2,41,0.83
"3210",23,"incongruent",659,1,2,42,0.659
"3211",23,"congruent",659,1,1,43,0.659
"3212",23,"incongruent",579,1,2,44,0.579
"3213",23,"incongruent",561,1,2,45,0.561
"3215",23,"congruent",942,1,1,47,0.942
"3216",23,"incongruent",829,1,2,48,0.829
"3219",23,"congruent",556,1,1,51,0.556
"3220",23,"incongruent",690,1,2,52,0.69
"3222",23,"incongruent",562,1,2,54,0.562
"3224",23,"incongruent",766,1,2,56,0.766
"3225",23,"incongruent",920,1,2,57,0.92
"3226",23,"congruent",550,1,1,58,0.55
"3227",23,"incongruent",668,1,2,59,0.668
"3228",23,"congruent",612,1,1,60,0.612
"3230",23,"incongruent",754,1,2,62,0.754
"3231",23,"incongruent",557,1,2,63,0.557
"3232",23,"congruent",746,1,1,64,0.746
"3233",23,"incongruent",724,1,2,65,0.724
"3234",23,"incongruent",1046,1,2,66,1.046
"3235",23,"incongruent",1159,1,2,67,1.159
"3236",23,"congruent",524,1,1,68,0.524
"3237",23,"congruent",536,1,1,69,0.536
"3241",23,"incongruent",623,1,2,73,0.623
"3244",23,"congruent",521,1,1,76,0.521
"3245",23,"congruent",469,1,1,77,0.469
"3246",23,"congruent",736,1,1,78,0.736
"3247",23,"incongruent",482,1,2,79,0.482
"3249",23,"incongruent",584,1,2,81,0.584
"3251",23,"congruent",834,1,1,83,0.834
"3253",23,"congruent",539,1,1,85,0.539
"3254",23,"congruent",648,1,1,86,0.648
"3255",23,"congruent",680,1,1,87,0.68
"3257",23,"incongruent",653,1,2,89,0.653
"3258",23,"incongruent",453,1,2,90,0.453
"3259",23,"congruent",399,1,1,91,0.399
"3261",23,"congruent",526,1,1,93,0.526
"3265",23,"congruent",828,1,1,97,0.828
"3267",23,"incongruent",597,1,2,99,0.597
"3268",23,"incongruent",803,1,2,100,0.803
"3269",23,"congruent",583,1,1,101,0.583
"3270",23,"congruent",573,1,1,102,0.573
"3271",23,"incongruent",570,1,2,103,0.57
"3272",23,"incongruent",552,1,2,104,0.552
"3273",23,"incongruent",557,1,2,105,0.557
"3275",23,"congruent",648,1,1,107,0.648
"3277",23,"incongruent",605,1,2,109,0.605
"3278",23,"congruent",811,1,1,110,0.811
"3280",23,"congruent",486,1,1,112,0.486
"3283",23,"congruent",595,1,1,115,0.595
"3287",23,"incongruent",671,1,2,119,0.671
"3288",23,"incongruent",591,1,2,120,0.591
"3290",23,"incongruent",710,1,2,122,0.71
"3291",23,"congruent",384,1,1,123,0.384
"3292",23,"incongruent",1208,1,2,124,1.208
"3295",23,"congruent",520,1,1,127,0.52
"3296",23,"congruent",621,1,1,128,0.621
"3297",23,"congruent",604,1,1,129,0.604
"3298",23,"congruent",537,1,1,130,0.537
"3299",23,"incongruent",679,1,2,131,0.679
"3302",23,"incongruent",705,1,2,134,0.705
"3303",23,"congruent",643,1,1,135,0.643
"3305",23,"incongruent",609,1,2,137,0.609
"3308",23,"incongruent",598,1,2,140,0.598
"3310",23,"congruent",692,1,1,142,0.692
"3312",23,"congruent",445,1,1,144,0.445
"3316",24,"incongruent",987,1,2,4,0.987
"3318",24,"incongruent",678,1,2,6,0.678
"3322",24,"incongruent",1840,1,2,10,1.84
"3324",24,"congruent",1255,1,1,12,1.255
"3325",24,"congruent",1039,1,1,13,1.039
"3327",24,"incongruent",836,1,2,15,0.836
"3328",24,"congruent",736,1,1,16,0.736
"3329",24,"incongruent",1026,1,2,17,1.026
"3330",24,"congruent",1091,1,1,18,1.091
"3331",24,"incongruent",942,1,2,19,0.942
"3332",24,"congruent",789,1,1,20,0.789
"3333",24,"congruent",807,1,1,21,0.807
"3335",24,"congruent",845,1,1,23,0.845
"3336",24,"incongruent",825,1,2,24,0.825
"3337",24,"congruent",757,1,1,25,0.757
"3338",24,"congruent",760,1,1,26,0.76
"3339",24,"congruent",570,1,1,27,0.57
"3340",24,"congruent",792,1,1,28,0.792
"3341",24,"incongruent",763,1,2,29,0.763
"3344",24,"incongruent",571,1,2,32,0.571
"3345",24,"congruent",593,1,1,33,0.593
"3347",24,"congruent",623,1,1,35,0.623
"3348",24,"congruent",605,1,1,36,0.605
"3350",24,"incongruent",619,1,2,38,0.619
"3351",24,"congruent",698,1,1,39,0.698
"3352",24,"incongruent",1555,1,2,40,1.555
"3353",24,"incongruent",1089,1,2,41,1.089
"3354",24,"incongruent",692,1,2,42,0.692
"3355",24,"congruent",636,1,1,43,0.636
"3356",24,"incongruent",764,1,2,44,0.764
"3357",24,"incongruent",638,1,2,45,0.638
"3359",24,"congruent",686,1,1,47,0.686
"3360",24,"incongruent",638,1,2,48,0.638
"3363",24,"congruent",663,1,1,51,0.663
"3364",24,"incongruent",671,1,2,52,0.671
"3366",24,"incongruent",618,1,2,54,0.618
"3368",24,"incongruent",856,1,2,56,0.856
"3369",24,"incongruent",732,1,2,57,0.732
"3370",24,"congruent",806,1,1,58,0.806
"3371",24,"incongruent",618,1,2,59,0.618
"3372",24,"congruent",713,1,1,60,0.713
"3374",24,"incongruent",748,1,2,62,0.748
"3375",24,"incongruent",718,1,2,63,0.718
"3376",24,"congruent",762,1,1,64,0.762
"3377",24,"incongruent",673,1,2,65,0.673
"3378",24,"incongruent",1041,1,2,66,1.041
"3379",24,"incongruent",811,1,2,67,0.811
"3380",24,"congruent",598,1,1,68,0.598
"3381",24,"congruent",629,1,1,69,0.629
"3385",24,"incongruent",654,1,2,73,0.654
"3388",24,"congruent",670,1,1,76,0.67
"3389",24,"congruent",678,1,1,77,0.678
"3390",24,"congruent",687,1,1,78,0.687
"3391",24,"incongruent",975,1,2,79,0.975
"3393",24,"incongruent",757,1,2,81,0.757
"3395",24,"congruent",558,1,1,83,0.558
"3397",24,"congruent",576,1,1,85,0.576
"3398",24,"congruent",662,1,1,86,0.662
"3399",24,"congruent",1046,1,1,87,1.046
"3401",24,"incongruent",706,1,2,89,0.706
"3402",24,"incongruent",1043,1,2,90,1.043
"3403",24,"congruent",668,1,1,91,0.668
"3405",24,"congruent",944,1,1,93,0.944
"3409",24,"congruent",583,1,1,97,0.583
"3411",24,"incongruent",425,1,2,99,0.425
"3412",24,"incongruent",690,1,2,100,0.69
"3413",24,"congruent",594,1,1,101,0.594
"3414",24,"congruent",592,1,1,102,0.592
"3415",24,"incongruent",646,1,2,103,0.646
"3416",24,"incongruent",734,1,2,104,0.734
"3417",24,"incongruent",1071,1,2,105,1.071
"3419",24,"congruent",698,1,1,107,0.698
"3421",24,"incongruent",545,1,2,109,0.545
"3422",24,"congruent",510,1,1,110,0.51
"3424",24,"congruent",538,1,1,112,0.538
"3427",24,"congruent",671,1,1,115,0.671
"3431",24,"incongruent",495,1,2,119,0.495
"3432",24,"incongruent",859,1,2,120,0.859
"3434",24,"incongruent",680,1,2,122,0.68
"3435",24,"congruent",601,1,1,123,0.601
"3436",24,"incongruent",479,1,2,124,0.479
"3439",24,"congruent",432,1,1,127,0.432
"3440",24,"congruent",634,1,1,128,0.634
"3441",24,"congruent",593,1,1,129,0.593
"3442",24,"congruent",695,1,1,130,0.695
"3443",24,"incongruent",664,1,2,131,0.664
"3446",24,"incongruent",412,1,2,134,0.412
"3447",24,"congruent",485,1,1,135,0.485
"3449",24,"incongruent",595,1,2,137,0.595
"3452",24,"incongruent",554,1,2,140,0.554
"3453",24,"incongruent",735,1,2,141,0.735
"3454",24,"congruent",593,1,1,142,0.593
"3456",24,"congruent",536,1,1,144,0.536
"3460",25,"incongruent",890,1,2,4,0.89
"3462",25,"incongruent",674,1,2,6,0.674
"3463",25,"incongruent",771,1,2,7,0.771
"3464",25,"incongruent",605,1,2,8,0.605
"3465",25,"congruent",612,1,1,9,0.612
"3466",25,"incongruent",907,1,2,10,0.907
"3468",25,"congruent",844,1,1,12,0.844
"3469",25,"congruent",681,1,1,13,0.681
"3471",25,"incongruent",697,1,2,15,0.697
"3472",25,"congruent",682,1,1,16,0.682
"3473",25,"incongruent",682,1,2,17,0.682
"3474",25,"congruent",667,1,1,18,0.667
"3475",25,"incongruent",707,1,2,19,0.707
"3476",25,"congruent",770,1,1,20,0.77
"3477",25,"congruent",807,1,1,21,0.807
"3479",25,"congruent",672,1,1,23,0.672
"3480",25,"incongruent",920,1,2,24,0.92
"3481",25,"congruent",703,1,1,25,0.703
"3482",25,"congruent",864,1,1,26,0.864
"3483",25,"congruent",757,1,1,27,0.757
"3484",25,"congruent",952,1,1,28,0.952
"3485",25,"incongruent",655,1,2,29,0.655
"3488",25,"incongruent",944,1,2,32,0.944
"3489",25,"congruent",656,1,1,33,0.656
"3491",25,"congruent",713,1,1,35,0.713
"3492",25,"congruent",834,1,1,36,0.834
"3494",25,"incongruent",668,1,2,38,0.668
"3495",25,"congruent",620,1,1,39,0.62
"3496",25,"incongruent",715,1,2,40,0.715
"3497",25,"incongruent",764,1,2,41,0.764
"3498",25,"incongruent",655,1,2,42,0.655
"3499",25,"congruent",535,1,1,43,0.535
"3500",25,"incongruent",708,1,2,44,0.708
"3501",25,"incongruent",821,1,2,45,0.821
"3503",25,"congruent",740,1,1,47,0.74
"3504",25,"incongruent",798,1,2,48,0.798
"3507",25,"congruent",746,1,1,51,0.746
"3508",25,"incongruent",595,1,2,52,0.595
"3510",25,"incongruent",645,1,2,54,0.645
"3512",25,"incongruent",611,1,2,56,0.611
"3513",25,"incongruent",706,1,2,57,0.706
"3514",25,"congruent",579,1,1,58,0.579
"3515",25,"incongruent",617,1,2,59,0.617
"3516",25,"congruent",704,1,1,60,0.704
"3518",25,"incongruent",745,1,2,62,0.745
"3519",25,"incongruent",571,1,2,63,0.571
"3520",25,"congruent",553,1,1,64,0.553
"3521",25,"incongruent",654,1,2,65,0.654
"3522",25,"incongruent",622,1,2,66,0.622
"3523",25,"incongruent",637,1,2,67,0.637
"3524",25,"congruent",1156,1,1,68,1.156
"3525",25,"congruent",673,1,1,69,0.673
"3529",25,"incongruent",599,1,2,73,0.599
"3532",25,"congruent",661,1,1,76,0.661
"3533",25,"congruent",1061,1,1,77,1.061
"3534",25,"congruent",655,1,1,78,0.655
"3535",25,"incongruent",1087,1,2,79,1.087
"3537",25,"incongruent",761,1,2,81,0.761
"3539",25,"congruent",602,1,1,83,0.602
"3541",25,"congruent",679,1,1,85,0.679
"3542",25,"congruent",711,1,1,86,0.711
"3543",25,"congruent",609,1,1,87,0.609
"3545",25,"incongruent",628,1,2,89,0.628
"3546",25,"incongruent",771,1,2,90,0.771
"3547",25,"congruent",990,1,1,91,0.99
"3549",25,"congruent",562,1,1,93,0.562
"3553",25,"congruent",642,1,1,97,0.642
"3556",25,"incongruent",655,1,2,100,0.655
"3557",25,"congruent",535,1,1,101,0.535
"3558",25,"congruent",788,1,1,102,0.788
"3559",25,"incongruent",1287,1,2,103,1.287
"3560",25,"incongruent",631,1,2,104,0.631
"3561",25,"incongruent",654,1,2,105,0.654
"3563",25,"congruent",628,1,1,107,0.628
"3565",25,"incongruent",633,1,2,109,0.633
"3566",25,"congruent",675,1,1,110,0.675
"3568",25,"congruent",626,1,1,112,0.626
"3571",25,"congruent",719,1,1,115,0.719
"3575",25,"incongruent",632,1,2,119,0.632
"3576",25,"incongruent",735,1,2,120,0.735
"3578",25,"incongruent",744,1,2,122,0.744
"3579",25,"congruent",514,1,1,123,0.514
"3580",25,"incongruent",583,1,2,124,0.583
"3583",25,"congruent",569,1,1,127,0.569
"3584",25,"congruent",718,1,1,128,0.718
"3585",25,"congruent",664,1,1,129,0.664
"3586",25,"congruent",624,1,1,130,0.624
"3587",25,"incongruent",655,1,2,131,0.655
"3590",25,"incongruent",733,1,2,134,0.733
"3591",25,"congruent",623,1,1,135,0.623
"3593",25,"incongruent",744,1,2,137,0.744
"3596",25,"incongruent",640,1,2,140,0.64
"3597",25,"incongruent",640,1,2,141,0.64
"3598",25,"congruent",600,1,1,142,0.6
"3600",25,"congruent",645,1,1,144,0.645
"3606",26,"incongruent",703,1,2,6,0.703
"3607",26,"incongruent",880,1,2,7,0.88
"3608",26,"incongruent",702,1,2,8,0.702
"3609",26,"congruent",639,1,1,9,0.639
"3610",26,"incongruent",863,1,2,10,0.863
"3612",26,"congruent",645,1,1,12,0.645
"3613",26,"congruent",733,1,1,13,0.733
"3615",26,"incongruent",751,1,2,15,0.751
"3616",26,"congruent",873,1,1,16,0.873
"3617",26,"incongruent",727,1,2,17,0.727
"3618",26,"congruent",673,1,1,18,0.673
"3619",26,"incongruent",737,1,2,19,0.737
"3620",26,"congruent",619,1,1,20,0.619
"3621",26,"congruent",618,1,1,21,0.618
"3623",26,"congruent",682,1,1,23,0.682
"3624",26,"incongruent",578,1,2,24,0.578
"3625",26,"congruent",584,1,1,25,0.584
"3626",26,"congruent",558,1,1,26,0.558
"3627",26,"congruent",523,1,1,27,0.523
"3628",26,"congruent",584,1,1,28,0.584
"3629",26,"incongruent",998,1,2,29,0.998
"3633",26,"congruent",1544,1,1,33,1.544
"3635",26,"congruent",674,1,1,35,0.674
"3636",26,"congruent",666,1,1,36,0.666
"3639",26,"congruent",801,1,1,39,0.801
"3641",26,"incongruent",1384,1,2,41,1.384
"3642",26,"incongruent",714,1,2,42,0.714
"3643",26,"congruent",643,1,1,43,0.643
"3644",26,"incongruent",723,1,2,44,0.723
"3645",26,"incongruent",1101,1,2,45,1.101
"3647",26,"congruent",649,1,1,47,0.649
"3648",26,"incongruent",928,1,2,48,0.928
"3651",26,"congruent",737,1,1,51,0.737
"3652",26,"incongruent",699,1,2,52,0.699
"3654",26,"incongruent",704,1,2,54,0.704
"3656",26,"incongruent",706,1,2,56,0.706
"3657",26,"incongruent",755,1,2,57,0.755
"3658",26,"congruent",742,1,1,58,0.742
"3659",26,"incongruent",687,1,2,59,0.687
"3660",26,"congruent",721,1,1,60,0.721
"3662",26,"incongruent",698,1,2,62,0.698
"3663",26,"incongruent",811,1,2,63,0.811
"3664",26,"congruent",695,1,1,64,0.695
"3665",26,"incongruent",608,1,2,65,0.608
"3666",26,"incongruent",879,1,2,66,0.879
"3667",26,"incongruent",756,1,2,67,0.756
"3668",26,"congruent",782,1,1,68,0.782
"3669",26,"congruent",682,1,1,69,0.682
"3673",26,"incongruent",777,1,2,73,0.777
"3676",26,"congruent",880,1,1,76,0.88
"3677",26,"congruent",805,1,1,77,0.805
"3678",26,"congruent",1041,1,1,78,1.041
"3681",26,"incongruent",692,1,2,81,0.692
"3683",26,"congruent",733,1,1,83,0.733
"3685",26,"congruent",667,1,1,85,0.667
"3686",26,"congruent",667,1,1,86,0.667
"3687",26,"congruent",795,1,1,87,0.795
"3689",26,"incongruent",774,1,2,89,0.774
"3690",26,"incongruent",705,1,2,90,0.705
"3691",26,"congruent",706,1,1,91,0.706
"3693",26,"congruent",644,1,1,93,0.644
"3697",26,"congruent",929,1,1,97,0.929
"3699",26,"incongruent",909,1,2,99,0.909
"3700",26,"incongruent",851,1,2,100,0.851
"3701",26,"congruent",792,1,1,101,0.792
"3702",26,"congruent",747,1,1,102,0.747
"3703",26,"incongruent",790,1,2,103,0.79
"3704",26,"incongruent",761,1,2,104,0.761
"3705",26,"incongruent",827,1,2,105,0.827
"3707",26,"congruent",779,1,1,107,0.779
"3709",26,"incongruent",840,1,2,109,0.84
"3710",26,"congruent",749,1,1,110,0.749
"3712",26,"congruent",762,1,1,112,0.762
"3715",26,"congruent",760,1,1,115,0.76
"3719",26,"incongruent",744,1,2,119,0.744
"3720",26,"incongruent",730,1,2,120,0.73
"3722",26,"incongruent",660,1,2,122,0.66
"3723",26,"congruent",580,1,1,123,0.58
"3724",26,"incongruent",618,1,2,124,0.618
"3727",26,"congruent",688,1,1,127,0.688
"3728",26,"congruent",1032,1,1,128,1.032
"3729",26,"congruent",674,1,1,129,0.674
"3730",26,"congruent",658,1,1,130,0.658
"3731",26,"incongruent",834,1,2,131,0.834
"3734",26,"incongruent",964,1,2,134,0.964
"3735",26,"congruent",1939,1,1,135,1.939
"3737",26,"incongruent",806,1,2,137,0.806
"3740",26,"incongruent",686,1,2,140,0.686
"3741",26,"incongruent",678,1,2,141,0.678
"3742",26,"congruent",543,1,1,142,0.543
"3744",26,"congruent",726,1,1,144,0.726
"3748",27,"incongruent",1304,1,2,4,1.304
"3750",27,"incongruent",1528,1,2,6,1.528
"3751",27,"incongruent",1198,1,2,7,1.198
"3752",27,"incongruent",763,1,2,8,0.763
"3753",27,"congruent",1238,1,1,9,1.238
"3754",27,"incongruent",1077,1,2,10,1.077
"3757",27,"congruent",1666,1,1,13,1.666
"3759",27,"incongruent",742,1,2,15,0.742
"3760",27,"congruent",792,1,1,16,0.792
"3761",27,"incongruent",971,1,2,17,0.971
"3762",27,"congruent",915,1,1,18,0.915
"3763",27,"incongruent",1018,1,2,19,1.018
"3764",27,"congruent",875,1,1,20,0.875
"3765",27,"congruent",736,1,1,21,0.736
"3767",27,"congruent",732,1,1,23,0.732
"3768",27,"incongruent",877,1,2,24,0.877
"3769",27,"congruent",1019,1,1,25,1.019
"3770",27,"congruent",1916,1,1,26,1.916
"3771",27,"congruent",796,1,1,27,0.796
"3772",27,"congruent",991,1,1,28,0.991
"3773",27,"incongruent",888,1,2,29,0.888
"3776",27,"incongruent",898,1,2,32,0.898
"3777",27,"congruent",904,1,1,33,0.904
"3780",27,"congruent",830,1,1,36,0.83
"3782",27,"incongruent",688,1,2,38,0.688
"3783",27,"congruent",744,1,1,39,0.744
"3784",27,"incongruent",818,1,2,40,0.818
"3785",27,"incongruent",1262,1,2,41,1.262
"3786",27,"incongruent",957,1,2,42,0.957
"3787",27,"congruent",821,1,1,43,0.821
"3788",27,"incongruent",801,1,2,44,0.801
"3789",27,"incongruent",812,1,2,45,0.812
"3791",27,"congruent",1476,1,1,47,1.476
"3792",27,"incongruent",1168,1,2,48,1.168
"3795",27,"congruent",953,1,1,51,0.953
"3796",27,"incongruent",616,1,2,52,0.616
"3798",27,"incongruent",765,1,2,54,0.765
"3800",27,"incongruent",654,1,2,56,0.654
"3801",27,"incongruent",630,1,2,57,0.63
"3802",27,"congruent",773,1,1,58,0.773
"3803",27,"incongruent",1144,1,2,59,1.144
"3804",27,"congruent",708,1,1,60,0.708
"3806",27,"incongruent",1242,1,2,62,1.242
"3807",27,"incongruent",825,1,2,63,0.825
"3808",27,"congruent",677,1,1,64,0.677
"3809",27,"incongruent",662,1,2,65,0.662
"3810",27,"incongruent",614,1,2,66,0.614
"3811",27,"incongruent",668,1,2,67,0.668
"3812",27,"congruent",588,1,1,68,0.588
"3813",27,"congruent",954,1,1,69,0.954
"3817",27,"incongruent",580,1,2,73,0.58
"3820",27,"congruent",527,1,1,76,0.527
"3821",27,"congruent",683,1,1,77,0.683
"3822",27,"congruent",948,1,1,78,0.948
"3823",27,"incongruent",564,1,2,79,0.564
"3825",27,"incongruent",713,1,2,81,0.713
"3827",27,"congruent",712,1,1,83,0.712
"3829",27,"congruent",605,1,1,85,0.605
"3830",27,"congruent",916,1,1,86,0.916
"3831",27,"congruent",546,1,1,87,0.546
"3833",27,"incongruent",1062,1,2,89,1.062
"3834",27,"incongruent",720,1,2,90,0.72
"3835",27,"congruent",466,1,1,91,0.466
"3837",27,"congruent",1700,1,1,93,1.7
"3841",27,"congruent",870,1,1,97,0.87
"3843",27,"incongruent",824,1,2,99,0.824
"3844",27,"incongruent",844,1,2,100,0.844
"3845",27,"congruent",720,1,1,101,0.72
"3846",27,"congruent",626,1,1,102,0.626
"3847",27,"incongruent",864,1,2,103,0.864
"3848",27,"incongruent",574,1,2,104,0.574
"3849",27,"incongruent",491,1,2,105,0.491
"3851",27,"congruent",787,1,1,107,0.787
"3853",27,"incongruent",804,1,2,109,0.804
"3854",27,"congruent",1208,1,1,110,1.208
"3856",27,"congruent",694,1,1,112,0.694
"3859",27,"congruent",677,1,1,115,0.677
"3863",27,"incongruent",1159,1,2,119,1.159
"3864",27,"incongruent",1012,1,2,120,1.012
"3866",27,"incongruent",743,1,2,122,0.743
"3867",27,"congruent",497,1,1,123,0.497
"3868",27,"incongruent",445,1,2,124,0.445
"3871",27,"congruent",548,1,1,127,0.548
"3872",27,"congruent",889,1,1,128,0.889
"3873",27,"congruent",670,1,1,129,0.67
"3874",27,"congruent",926,1,1,130,0.926
"3875",27,"incongruent",1517,1,2,131,1.517
"3878",27,"incongruent",805,1,2,134,0.805
"3879",27,"congruent",1280,1,1,135,1.28
"3881",27,"incongruent",823,1,2,137,0.823
"3884",27,"incongruent",918,1,2,140,0.918
"3885",27,"incongruent",964,1,2,141,0.964
"3886",27,"congruent",908,1,1,142,0.908
"3888",27,"congruent",484,1,1,144,0.484
"3894",28,"incongruent",635,1,2,6,0.635
"3895",28,"incongruent",970,1,2,7,0.97
"3896",28,"incongruent",850,1,2,8,0.85
"3897",28,"congruent",727,1,1,9,0.727
"3898",28,"incongruent",1041,1,2,10,1.041
"3900",28,"congruent",698,1,1,12,0.698
"3901",28,"congruent",723,1,1,13,0.723
"3903",28,"incongruent",858,1,2,15,0.858
"3904",28,"congruent",615,1,1,16,0.615
"3905",28,"incongruent",574,1,2,17,0.574
"3906",28,"congruent",740,1,1,18,0.74
"3907",28,"incongruent",1182,1,2,19,1.182
"3908",28,"congruent",803,1,1,20,0.803
"3909",28,"congruent",886,1,1,21,0.886
"3911",28,"congruent",694,1,1,23,0.694
"3912",28,"incongruent",583,1,2,24,0.583
"3913",28,"congruent",637,1,1,25,0.637
"3914",28,"congruent",716,1,1,26,0.716
"3915",28,"congruent",741,1,1,27,0.741
"3916",28,"congruent",1088,1,1,28,1.088
"3917",28,"incongruent",690,1,2,29,0.69
"3920",28,"incongruent",770,1,2,32,0.77
"3921",28,"congruent",692,1,1,33,0.692
"3923",28,"congruent",1823,1,1,35,1.823
"3924",28,"congruent",685,1,1,36,0.685
"3928",28,"incongruent",745,1,2,40,0.745
